File: xrd/SAIFXR190711G-03(C) .uxd
; (content of file E:\SAIF User Data\2019\Adrine Correya RS,ISP,CUSAT\190711G\SAIFXR190711G-03(C).raw)
_FILEVERSION = 2
_SAMPLE = C
_+SAMPLE =
_SITE = "Cochin Uni"
_USER = "Cochin Uni"
_GONIOMETER_CODE = 20
; Goniometer : D8 theta/2theta, stage : Unknown
_SAMPLE_CHANGER_CODE = 0
_ATTACHMENTS_CODE = 0
_GONIOMETER_RADIUS = 217.5
_FIXED_DIVSLIT = 0.15
_FIXED_SAMPLESLIT = 1
_SOLLER_SLITS = 2
_FIXED_DETSLIT = 1
_MONOCHROMATOR = 0
; Incident beam monochromator : None
_THIN_FILM = N
_BETA_FILTER = N
_FIXED_ANTISLIT = 0.15
_ANALYZER_CODE = 0
; Received beam analyzer : None
_DATEMEASURED = "15-Jul-2019 15:59:39"
_WL_UNIT = A
_WL1 = 1.5406
_WL2 = 1.54439
_WL3 = 1.39222
_WLRATIO = 0.5
_ANODE = Cu

; Data for range 1
_DRIVE = COUPLED
_STEPTIME = 59.67
_STEPSIZE = 0.0198849
_STEPMODE = C
_START = 3
_THETA = 1.5
_2THETA = 3
_KHI = 0
_PHI = 0
_X = 0
_Y = 0
_Z = 0
_DETECTOR = 5
; Detector type : Unknown
_DETECTORSLIT = out
_AUX1 = 0
_AUX2 = 0
_AUX3 = 0
_TIMESTARTED = 16
_TEMP_RATE = -1
_TEMP_DELAY = -1
_KV = 40
_MA = 40
_RANGE_WL = 1.5406
_3DPLANE = 0
_V4_COUNTERS_MASK = 4096
_V4_DRIVES_MASK = 0
_V4_ENCODERS_MASK = 0
_2THETACOUNTS = 1
; 2THETA  PSD
   3.0000       2304
   3.0597       2238
   3.1193       2222
   3.1790       2145
   3.2386       1906
   3.2983       1986
   3.3579       1842
   3.4176       1834
   3.4772       1774
   3.5369       1692
   3.5965       1698
   3.6562       1619
   3.7159       1620
   3.7755       1496
   3.8352       1543
   3.8948       1477
   3.9545       1464
   4.0141       1378
   4.0738       1499
   4.1334       1493
   4.1931       1430
   4.2527       1440
   4.3124       1408
   4.3721       1322
   4.4317       1341
   4.4914       1324
   4.5510       1368
   4.6107       1353
   4.6703       1305
   4.7300       1274
   4.7896       1338
   4.8493       1253
   4.9090       1312
   4.9686       1287
   5.0283       1294
   5.0879       1208
   5.1476       1174
   5.2072       1228
   5.2669       1270
   5.3265       1219
   5.3862       1130
   5.4458       1204
   5.5055       1198
   5.5652       1143
   5.6248       1185
   5.6845       1156
   5.7441       1138
   5.8038       1118
   5.8634       1082
   5.9231       1103
   5.9827       1078
   6.0424       1081
   6.1020       1111
   6.1617       1068
   6.2214       1012
   6.2810       1092
   6.3407       1042
   6.4003       1011
   6.4600       1012
   6.5196       1025
   6.5793       1015
   6.6389       1013
   6.6986       1005
   6.7582        959
   6.8179        998
   6.8776       1001
   6.9372        990
   6.9969        908
   7.0565        910
   7.1162        925
   7.1758        914
   7.2355        947
   7.2951        950
   7.3548        988
   7.4144       1059
   7.4741        918
   7.5338        993
   7.5934        944
   7.6531        926
   7.7127        905
   7.7724        922
   7.8320        892
   7.8917        923
   7.9513        843
   8.0110        822
   8.0706        870
   8.1303        869
   8.1900        930
   8.2496        805
   8.3093        856
   8.3689        843
   8.4286        859
   8.4882        806
   8.5479        826
   8.6075        827
   8.6672        863
   8.7269        832
   8.7865        830
   8.8462        790
   8.9058        815
   8.9655        804
   9.0251        764
   9.0848        777
   9.1444        765
   9.2041        824
   9.2637        805
   9.3234        829
   9.3831        801
   9.4427        758
   9.5024        742
   9.5620        781
   9.6217        757
   9.6813        804
   9.7410        722
   9.8006        786
   9.8603        760
   9.9199        803
   9.9796        759
  10.0393        742
  10.0989        778
  10.1586        728
  10.2182        760
  10.2779        754
  10.3375        801
  10.3972        766
  10.4568        798
  10.5165        765
  10.5761        956
  10.6358       1070
  10.6955       1113
  10.7551       1004
  10.8148        915
  10.8744        808
  10.9341        774
  10.9937        755
  11.0534        766
  11.1130        749
  11.1727        760
  11.2323        739
  11.2920        752
  11.3517        802
  11.4113        767
  11.4710        751
  11.5306        759
  11.5903        779
  11.6499        688
  11.7096        732
  11.7692        754
  11.8289        709
  11.8886        720
  11.9482        797
  12.0079        745
  12.0675        692
  12.1272        717
  12.1868        767
  12.2465        723
  12.3061        710
  12.3658        719
  12.4254        711
  12.4851        745
  12.5448        719
  12.6044        704
  12.6641        691
  12.7237        703
  12.7834        726
  12.8430        687
  12.9027        658
  12.9623        692
  13.0220        683
  13.0816        750
  13.1413        768
  13.2010        733
  13.2606        707
  13.3203        641
  13.3799        699
  13.4396        650
  13.4992        645
  13.5589        679
  13.6185        634
  13.6782        639
  13.7378        594
  13.7975        643
  13.8572        615
  13.9168        649
  13.9765        631
  14.0361        594
  14.0958        530
  14.1554        587
  14.2151        543
  14.2747        571
  14.3344        605
  14.3940        627
  14.4537        658
  14.5134        577
  14.5730        676
  14.6327        711
  14.6923        710
  14.7520        675
  14.8116        616
  14.8713        554
  14.9309        579
  14.9906        531
  15.0502        524
  15.1099        590
  15.1696        588
  15.2292        565
  15.2889        556
  15.3485        577
  15.4082        548
  15.4678        553
  15.5275        550
  15.5871        538
  15.6468        540
  15.7065        532
  15.7661        538
  15.8258        581
  15.8854        637
  15.9451        709
  16.0047        906
  16.0644       1143
  16.1240        878
  16.1837        639
  16.2433        576
  16.3030        582
  16.3627        529
  16.4223        523
  16.4820        533
  16.5416        543
  16.6013        518
  16.6609        463
  16.7206        473
  16.7802        525
  16.8399        482
  16.8995        496
  16.9592        521
  17.0189        450
  17.0785        471
  17.1382        452
  17.1978        478
  17.2575        503
  17.3171        523
  17.3768        464
  17.4364        487
  17.4961        476
  17.5557        469
  17.6154        462
  17.6751        459
  17.7347        438
  17.7944        455
  17.8540        453
  17.9137        467
  17.9733        452
  18.0330        459
  18.0926        462
  18.1523        488
  18.2119        481
  18.2716        469
  18.3313        474
  18.3909        525
  18.4506        468
  18.5102        469
  18.5699        469
  18.6295        485
  18.6892        425
  18.7488        492
  18.8085        452
  18.8682        416
  18.9278        441
  18.9875        447
  19.0471        436
  19.1068        438
  19.1664        436
  19.2261        439
  19.2857        427
  19.3454        436
  19.4050        423
  19.4647        452
  19.5244        475
  19.5840        441
  19.6437        442
  19.7033        413
  19.7630        434
  19.8226        428
  19.8823        417
  19.9419        410
  20.0016        428
  20.0612        393
  20.1209        430
  20.1806        389
  20.2402        444
  20.2999        426
  20.3595        423
  20.4192        397
  20.4788        401
  20.5385        415
  20.5981        432
  20.6578        381
  20.7174        432
  20.7771        426
  20.8368        410
  20.8964        358
  20.9561        447
  21.0157        380
  21.0754        409
  21.1350        399
  21.1947        434
  21.2543        423
  21.3140        412
  21.3736        446
  21.4333        529
  21.4930        676
  21.5526        716
  21.6123        564
  21.6719        472
  21.7316        435
  21.7912        466
  21.8509        414
  21.9105        429
  21.9702        385
  22.0298        415
  22.0895        402
  22.1492        435
  22.2088        381
  22.2685        392
  22.3281        407
  22.3878        448
  22.4474        444
  22.5071        395
  22.5667        471
  22.6264        500
  22.6861        510
  22.7457        516
  22.8054        516
  22.8650        527
  22.9247        556
  22.9843        632
  23.0440        717
  23.1036        979
  23.1633       1722
  23.2229       1529
  23.2826        884
  23.3423        678
  23.4019        595
  23.4616        585
  23.5212        589
  23.5809        607
  23.6405        669
  23.7002        676
  23.7598        676
  23.8195        712
  23.8791        658
  23.9388        644
  23.9985        621
  24.0581        607
  24.1178        587
  24.1774        519
  24.2371        542
  24.2967        505
  24.3564        523
  24.4160        571
  24.4757        537
  24.5353        516
  24.5950        456
  24.6547        418
  24.7143        472
  24.7740        449
  24.8336        471
  24.8933        431
  24.9529        461
  25.0126        416
  25.0722        468
  25.1319        457
  25.1915        457
  25.2512        497
  25.3109        436
  25.3705        424
  25.4302        437
  25.4898        467
  25.5495        486
  25.6091        504
  25.6688        476
  25.7284        464
  25.7881        472
  25.8478        479
  25.9074        503
  25.9671        454
  26.0267        484
  26.0864        451
  26.1460        496
  26.2057        444
  26.2653        459
  26.3250        468
  26.3846        500
  26.4443        529
  26.5040        465
  26.5636        512
  26.6233        535
  26.6829        573
  26.7426        714
  26.8022        696
  26.8619        669
  26.9215        589
  26.9812        606
  27.0408        622
  27.1005        631
  27.1602        692
  27.2198        763
  27.2795        898
  27.3391       1044
  27.3988       1405
  27.4584       1759
  27.5181       1895
  27.5777       1727
  27.6374       1482
  27.6970       1185
  27.7567       1137
  27.8164       1201
  27.8760       1105
  27.9357        945
  27.9953        815
  28.0550        802
  28.1146        780
  28.1743        758
  28.2339        733
  28.2936        728
  28.3532        767
  28.4129        857
  28.4726        801
  28.5322        802
  28.5919        770
  28.6515        721
  28.7112        667
  28.7708        735
  28.8305        763
  28.8901        720
  28.9498        762
  29.0094        843
  29.0691        770
  29.1288        834
  29.1884        852
  29.2481        925
  29.3077        931
  29.3674        966
  29.4270       1078
  29.4867       1143
  29.5463       1249
  29.6060       1542
  29.6657       1781
  29.7253       2046
  29.7850       2443
  29.8446       3459
  29.9043       6035
  29.9639       5347
  30.0236       3616
  30.0832       2045
  30.1429       1467
  30.2025       1236
  30.2622       1100
  30.3219       1059
  30.3815        999
  30.4412        942
  30.5008        958
  30.5605        952
  30.6201        791
  30.6798        742
  30.7394        716
  30.7991        646
  30.8587        684
  30.9184        590
  30.9781        568
  31.0377        573
  31.0974        575
  31.1570        506
  31.2167        530
  31.2763        493
  31.3360        521
  31.3956        523
  31.4553        515
  31.5149        483
  31.5746        545
  31.6343        536
  31.6939        502
  31.7536        496
  31.8132        528
  31.8729        538
  31.9325        545
  31.9922        567
  32.0518        561
  32.1115        680
  32.1711        822
  32.2308        848
  32.2905        964
  32.3501       1146
  32.4098       1178
  32.4694       1323
  32.5291       1450
  32.5887       1454
  32.6484       1708
  32.7080       2194
  32.7677       2022
  32.8273       1668
  32.8870       1508
  32.9467       1762
  33.0063       1284
  33.0660        844
  33.1256        601
  33.1853        515
  33.2449        484
  33.3046        443
  33.3642        423
  33.4239        441
  33.4836        430
  33.5432        435
  33.6029        420
  33.6625        431
  33.7222        480
  33.7818        390
  33.8415        398
  33.9011        420
  33.9608        400
  34.0204        434
  34.0801        409
  34.1398        415
  34.1994        444
  34.2591        392
  34.3187        445
  34.3784        450
  34.4380        514
  34.4977        511
  34.5573        538
  34.6170        460
  34.6766        465
  34.7363        424
  34.7960        420
  34.8556        441
  34.9153        416
  34.9749        397
  35.0346        381
  35.0942        405
  35.1539        365
  35.2135        406
  35.2732        390
  35.3328        417
  35.3925        365
  35.4522        338
  35.5118        350
  35.5715        301
  35.6311        318
  35.6908        319
  35.7504        331
  35.8101        321
  35.8697        327
  35.9294        305
  35.9890        336
  36.0487        314
  36.1084        330
  36.1680        285
  36.2277        299
  36.2873        290
  36.3470        307
  36.4066        301
  36.4663        326
  36.5259        332
  36.5856        364
  36.6453        417
  36.7049        405
  36.7646        408
  36.8242        400
  36.8839        479
  36.9435        431
  37.0032        374
  37.0628        372
  37.1225        323
  37.1821        318
  37.2418        357
  37.3015        308
  37.3611        325
  37.4208        345
  37.4804        361
  37.5401        337
  37.5997        337
  37.6594        394
  37.7190        392
  37.7787        400
  37.8383        407
  37.8980        440
  37.9577        468
  38.0173        502
  38.0770        490
  38.1366        544
  38.1963        762
  38.2559        654
  38.3156        639
  38.3752        468
  38.4349        431
  38.4945        406
  38.5542        357
  38.6139        394
  38.6735        383
  38.7332        352
  38.7928        343
  38.8525        311
  38.9121        327
  38.9718        346
  39.0314        351
  39.0911        329
  39.1507        317
  39.2104        359
  39.2701        368
  39.3297        387
  39.3894        412
  39.4490        536
  39.5087        767
  39.5683        822
  39.6280        717
  39.6876        802
  39.7473        822
  39.8069        635
  39.8666        530
  39.9263        408
  39.9859        365
  40.0456        342
  40.1052        353
  40.1649        323
  40.2245        331
  40.2842        314
  40.3438        307
  40.4035        310
  40.4632        308
  40.5228        316
  40.5825        283
  40.6421        313
  40.7018        272
  40.7614        290
  40.8211        288
  40.8807        298
  40.9404        304
  41.0000        300
  41.0597        295
  41.1194        285
  41.1790        312
  41.2387        318
  41.2983        288
  41.3580        313
  41.4176        321
  41.4773        326
  41.5369        366
  41.5966        322
  41.6562        377
  41.7159        375
  41.7756        357
  41.8352        387
  41.8949        357
  41.9545        394
  42.0142        369
  42.0738        379
  42.1335        357
  42.1931        382
  42.2528        390
  42.3124        383
  42.3721        377
  42.4318        370
  42.4914        392
  42.5511        356
  42.6107        414
  42.6704        414
  42.7300        402
  42.7897        395
  42.8493        342
  42.9090        346
  42.9686        316
  43.0283        304
  43.0880        325
  43.1476        277
  43.2073        291
  43.2669        296
  43.3266        290
  43.3862        278
  43.4459        287
  43.5055        294
  43.5652        290
  43.6249        273
  43.6845        294
  43.7442        302
  43.8038        281
  43.8635        291
  43.9231        365
  43.9828        350
  44.0424        311
  44.1021        318
  44.1617        283
  44.2214        296
  44.2811        316
  44.3407        282
  44.4004        315
  44.4600        273
  44.5197        334
  44.5793        281
  44.6390        303
  44.6986        336
  44.7583        363
  44.8179        306
  44.8776        380
  44.9373        351
  44.9969        401
  45.0566        420
  45.1162        440
  45.1759        391
  45.2355        412
  45.2952        368
  45.3548        438
  45.4145        400
  45.4741        449
  45.5338        451
  45.5935        436
  45.6531        355
  45.7128        404
  45.7724        364
  45.8321        349
  45.8917        372
  45.9514        407
  46.0110        368
  46.0707        390
  46.1303        402
  46.1900        425
  46.2497        382
  46.3093        403
  46.3690        451
  46.4286        501
  46.4883        538
  46.5479        621
  46.6076        649
  46.6672        712
  46.7269        703
  46.7865        694
  46.8462        763
  46.9059        682
  46.9655        667
  47.0252        788
  47.0848        975
  47.1445       1300
  47.2041       1080
  47.2638       1008
  47.3234        735
  47.3831        538
  47.4428        442
  47.5024        452
  47.5621        505
  47.6217        596
  47.6814        611
  47.7410        575
  47.8007        455
  47.8603        375
  47.9200        384
  47.9796        346
  48.0393        360
  48.0990        377
  48.1586        360
  48.2183        375
  48.2779        325
  48.3376        359
  48.3972        345
  48.4569        359
  48.5165        366
  48.5762        331
  48.6358        379
  48.6955        338
  48.7552        334
  48.8148        322
  48.8745        320
  48.9341        310
  48.9938        319
  49.0534        317
  49.1131        312
  49.1727        354
  49.2324        324
  49.2920        343
  49.3517        340
  49.4114        366
  49.4710        369
  49.5307        447
  49.5903        394
  49.6500        438
  49.7096        448
  49.7693        428
  49.8289        414
  49.8886        400
  49.9482        363
  50.0079        387
  50.0676        375
  50.1272        414
  50.1869        440
  50.2465        448
  50.3062        416
  50.3658        366
  50.4255        368
  50.4851        367
  50.5448        337
  50.6045        399
  50.6641        387
  50.7238        366
  50.7834        385
  50.8431        406
  50.9027        391
  50.9624        414
  51.0220        481
  51.0817        485
  51.1413        590
  51.2010        780
  51.2607        780
  51.3203        854
  51.3800        941
  51.4396        764
  51.4993        715
  51.5589        589
  51.6186        525
  51.6782        513
  51.7379        428
  51.7975        469
  51.8572        408
  51.9169        426
  51.9765        470
  52.0362        444
  52.0958        469
  52.1555        494
  52.2151        479
  52.2748        518
  52.3344        546
  52.3941        645
  52.4537        650
  52.5134        630
  52.5731        596
  52.6327        499
  52.6924        498
  52.7520        442
  52.8117        520
  52.8713        518
  52.9310        537
  52.9906        548
  53.0503        625
  53.1099        583
  53.1696        541
  53.2293        509
  53.2889        487
  53.3486        523
  53.4082        504
  53.4679        454
  53.5275        456
  53.5872        388
  53.6468        356
  53.7065        360
  53.7661        371
  53.8258        344
  53.8855        347
  53.9451        392
  54.0048        396
  54.0644        337
  54.1241        366
  54.1837        375
  54.2434        332
  54.3030        332
  54.3627        375
  54.4224        348
  54.4820        350
  54.5417        354
  54.6013        438
  54.6610        408
  54.7206        423
  54.7803        440
  54.8399        434
  54.8996        414
  54.9592        408
  55.0189        458
  55.0786        394
  55.1382        410
  55.1979        396
  55.2575        440
  55.3172        481
  55.3768        492
  55.4365        477
  55.4961        530
  55.5558        482
  55.6154        431
  55.6751        418
  55.7348        450
  55.7944        443
  55.8541        426
  55.9137        486
  55.9734        488
  56.0330        447
  56.0927        476
  56.1523        463
  56.2120        508
  56.2716        505
  56.3313        516
  56.3910        540
  56.4506        552
  56.5103        592
  56.5699        590
  56.6296        668
  56.6892        902
  56.7489       1164
  56.8085        994
  56.8682        997
  56.9278        986
  56.9875        961
  57.0472       1066
  57.1068        904
  57.1665        714
  57.2261        714
  57.2858        481
  57.3454        440
  57.4051        358
  57.4647        369
  57.5244        362
  57.5841        363
  57.6437        358
  57.7034        332
  57.7630        326
  57.8227        343
  57.8823        321
  57.9420        325
  58.0016        318
  58.0613        329
  58.1209        329
  58.1806        330
  58.2403        314
  58.2999        352
  58.3596        395
  58.4192        394
  58.4789        355
  58.5385        383
  58.5982        354
  58.6578        351
  58.7175        345
  58.7771        323
  58.8368        321
  58.8965        337
  58.9561        319
  59.0158        334
  59.0754        327
  59.1351        317
  59.1947        321
  59.2544        326
  59.3140        291
  59.3737        279
  59.4333        289
  59.4930        276
  59.5527        270
  59.6123        273
  59.6720        262
  59.7316        258
  59.7913        278
  59.8509        258
  59.9106        238
  59.9702        266
  60.0299        269
  60.0895        228
  60.1492        253
  60.2089        268
  60.2685        256
  60.3282        244
  60.3878        244
  60.4475        255
  60.5071        241
  60.5668        215
  60.6264        261
  60.6861        275
  60.7457        259
  60.8054        259
  60.8651        269
  60.9247        260
  60.9844        270
  61.0440        259
  61.1037        264
  61.1633        286
  61.2230        238
  61.2826        263
  61.3423        263
  61.4020        269
  61.4616        232
  61.5213        257
  61.5809        254
  61.6406        265
  61.7002        292
  61.7599        295
  61.8195        276
  61.8792        326
  61.9388        332
  61.9985        340
  62.0582        375
  62.1178        378
  62.1775        399
  62.2371        440
  62.2968        591
  62.3564        517
  62.4161        461
  62.4757        428
  62.5354        416
  62.5950        355
  62.6547        295
  62.7144        255
  62.7740        265
  62.8337        262
  62.8933        227
  62.9530        238
  63.0126        259
  63.0723        227
  63.1319        252
  63.1916        247
  63.2512        230
  63.3109        222
  63.3706        245
  63.4302        266
  63.4899        216
  63.5495        260
  63.6092        262
  63.6688        265
  63.7285        220
  63.7881        254
  63.8478        235
  63.9074        247
  63.9671        280
  64.0268        326
  64.0864        406
  64.1461        401
  64.2057        380
  64.2654        353
  64.3250        376
  64.3847        276
  64.4443        266
  64.5040        249
  64.5637        238
  64.6233        245
  64.6830        250
  64.7426        253
  64.8023        283
  64.8619        248
  64.9216        243
  64.9812        282
  65.0409        225
  65.1005        248
  65.1602        242
  65.2199        219
  65.2795        247
  65.3392        230
  65.3988        248
  65.4585        270
  65.5181        235
  65.5778        274
  65.6374        257
  65.6971        252
  65.7567        242
  65.8164        252
  65.8761        248
  65.9357        237
  65.9954        229
  66.0550        229
  66.1147        245
  66.1743        237
  66.2340        218
  66.2936        253
  66.3533        230
  66.4129        284
  66.4726        252
  66.5323        252
  66.5919        242
  66.6516        249
  66.7112        230
  66.7709        199
  66.8305        194
  66.8902        196
  66.9498        189
  67.0095        208
  67.0691        217
  67.1288        241
  67.1885        211
  67.2481        228
  67.3078        235
  67.3674        200
  67.4271        205
  67.4867        241
  67.5464        237
  67.6060        219
  67.6657        249
  67.7253        218
  67.7850        228
  67.8447        225
  67.9043        245
  67.9640        212
  68.0236        240
  68.0833        227
  68.1429        243
  68.2026        231
  68.2622        280
  68.3219        282
  68.3816        231
  68.4412        245
  68.5009        237
  68.5605        273
  68.6202        272
  68.6798        309
  68.7395        270
  68.7991        264
  68.8588        285
  68.9184        243
  68.9781        274
  69.0378        254
  69.0974        341
  69.1571        353
  69.2167        391
  69.2764        376
  69.3360        318
  69.3957        338
  69.4553        331
  69.5150        307
  69.5746        275
  69.6343        261
  69.6940        265
  69.7536        245
  69.8133        241
  69.8729        221
  69.9326        244
  69.9922        233
  70.0519        225
  70.1115        204
  70.1712        234
  70.2308        247
  70.2905        206
  70.3502        193
  70.4098        210
  70.4695        200
  70.5291        215
  70.5888        216
  70.6484        180
  70.7081        192
  70.7677        235
  70.8274        182
  70.8870        230
  70.9467        222
  71.0064        215
  71.0660        254
  71.1257        225
  71.1853        232
  71.2450        222
  71.3046        235
  71.3643        209
  71.4239        214
  71.4836        233
  71.5433        207
  71.6029        228
  71.6626        229
  71.7222        217
  71.7819        233
  71.8415        246
  71.9012        260
  71.9608        279
  72.0205        291
  72.0801        261
  72.1398        247
  72.1995        281
  72.2591        262
  72.3188        276
  72.3784        237
  72.4381        234
  72.4977        271
  72.5574        285
  72.6170        246
  72.6767        238
  72.7363        264
  72.7960        294
  72.8557        285
  72.9153        277
  72.9750        279
  73.0346        286
  73.0943        274
  73.1539        278
  73.2136        285
  73.2732        274
  73.3329        291
  73.3925        282
  73.4522        261
  73.5119        273
  73.5715        283
  73.6312        238
  73.6908        269
  73.7505        283
  73.8101        264
  73.8698        257
  73.9294        281
  73.9891        258
  74.0487        256
  74.1084        302
  74.1681        256
  74.2277        247
  74.2874        258
  74.3470        241
  74.4067        238
  74.4663        231
  74.5260        240
  74.5856        250
  74.6453        225
  74.7049        238
  74.7646        238
  74.8243        228
  74.8839        222
  74.9436        237
  75.0032        245
  75.0629        235
  75.1225        196
  75.1822        249
  75.2418        230
  75.3015        221
  75.3612        239
  75.4208        225
  75.4805        225
  75.5401        265
  75.5998        247
  75.6594        232
  75.7191        232
  75.7787        258
  75.8384        248
  75.8980        264
  75.9577        263
  76.0174        243
  76.0770        231
  76.1367        254
  76.1963        262
  76.2560        285
  76.3156        247
  76.3753        268
  76.4349        246
  76.4946        260
  76.5542        249
  76.6139        282
  76.6736        250
  76.7332        264
  76.7929        286
  76.8525        303
  76.9122        328
  76.9718        378
  77.0315        359
  77.0911        322
  77.1508        329
  77.2104        353
  77.2701        337
  77.3298        296
  77.3894        285
  77.4491        307
  77.5087        280
  77.5684        305
  77.6280        280
  77.6877        259
  77.7473        312
  77.8070        253
  77.8666        263
  77.9263        283
  77.9860        302
  78.0456        267
  78.1053        278
  78.1649        265
  78.2246        310
  78.2842        342
  78.3439        361
  78.4035        360
  78.4632        300
  78.5229        327
  78.5825        322
  78.6422        339
  78.7018        311
  78.7615        304
  78.8211        287
  78.8808        240
  78.9404        267
  79.0001        253
  79.0597        241
  79.1194        213
  79.1791        223
  79.2387        222
  79.2984        222
  79.3580        239
  79.4177        212
  79.4773        205
  79.5370        252
  79.5966        209
  79.6563        220
  79.7159        177
  79.7756        227
  79.8353        191
  79.8949        198
  79.9546        209
  79.9943        213