File: xrd/SAIFXR190711G-01(A) .uxd
; (content of file E:\SAIF User Data\2019\Adrine Correya RS,ISP,CUSAT\190711G\SAIFXR190711G-01(A).raw)
_FILEVERSION = 2
_SAMPLE = A
_+SAMPLE =
_SITE = "Cochin Uni"
_USER = "Cochin Uni"
_GONIOMETER_CODE = 20
; Goniometer : D8 theta/2theta, stage : Unknown
_SAMPLE_CHANGER_CODE = 0
_ATTACHMENTS_CODE = 0
_GONIOMETER_RADIUS = 217.5
_FIXED_DIVSLIT = 0.15
_FIXED_SAMPLESLIT = 1
_SOLLER_SLITS = 2
_FIXED_DETSLIT = 1
_MONOCHROMATOR = 0
; Incident beam monochromator : None
_THIN_FILM = N
_BETA_FILTER = N
_FIXED_ANTISLIT = 0.15
_ANALYZER_CODE = 0
; Received beam analyzer : None
_DATEMEASURED = "15-Jul-2019 14:44:46"
_WL_UNIT = A
_WL1 = 1.5406
_WL2 = 1.54439
_WL3 = 1.39222
_WLRATIO = 0.5
_ANODE = Cu

; Data for range 1
_DRIVE = COUPLED
_STEPTIME = 59.67
_STEPSIZE = 0.0198849
_STEPMODE = C
_START = 3
_THETA = 1.5
_2THETA = 3
_KHI = 0
_PHI = 0
_X = 0
_Y = 0
_Z = 0
_DETECTOR = 5
; Detector type : Unknown
_DETECTORSLIT = out
_AUX1 = 0
_AUX2 = 0
_AUX3 = 0
_TIMESTARTED = 16
_TEMP_RATE = -1
_TEMP_DELAY = -1
_KV = 40
_MA = 40
_RANGE_WL = 1.5406
_3DPLANE = 0
_V4_COUNTERS_MASK = 4096
_V4_DRIVES_MASK = 0
_V4_ENCODERS_MASK = 0
_2THETACOUNTS = 1
; 2THETA  PSD
   3.0000       2315
   3.0597       2302
   3.1193       2163
   3.1790       2093
   3.2386       2153
   3.2983       1987
   3.3579       1922
   3.4176       1911
   3.4772       1786
   3.5369       1793
   3.5965       1718
   3.6562       1747
   3.7159       1675
   3.7755       1657
   3.8352       1628
   3.8948       1642
   3.9545       1527
   4.0141       1538
   4.0738       1507
   4.1334       1488
   4.1931       1480
   4.2527       1495
   4.3124       1479
   4.3721       1553
   4.4317       1503
   4.4914       1457
   4.5510       1416
   4.6107       1332
   4.6703       1410
   4.7300       1401
   4.7896       1343
   4.8493       1398
   4.9090       1442
   4.9686       1345
   5.0283       1392
   5.0879       1304
   5.1476       1292
   5.2072       1287
   5.2669       1374
   5.3265       1313
   5.3862       1284
   5.4458       1226
   5.5055       1283
   5.5652       1285
   5.6248       1286
   5.6845       1215
   5.7441       1234
   5.8038       1194
   5.8634       1261
   5.9231       1238
   5.9827       1245
   6.0424       1176
   6.1020       1266
   6.1617       1155
   6.2214       1165
   6.2810       1192
   6.3407       1156
   6.4003       1181
   6.4600       1190
   6.5196       1195
   6.5793       1320
   6.6389       1305
   6.6986       1338
   6.7582       1628
   6.8179       1529
   6.8776       1216
   6.9372       1158
   6.9969       1125
   7.0565       1118
   7.1162       1085
   7.1758       1160
   7.2355       1122
   7.2951       1067
   7.3548       1073
   7.4144       1020
   7.4741       1060
   7.5338       1061
   7.5934       1025
   7.6531       1087
   7.7127       1059
   7.7724       1029
   7.8320       1040
   7.8917       1042
   7.9513       1042
   8.0110       1017
   8.0706       1008
   8.1303        965
   8.1900       1004
   8.2496       1047
   8.3093       1106
   8.3689        997
   8.4286       1105
   8.4882       1156
   8.5479       1177
   8.6075       1149
   8.6672       1262
   8.7269       1213
   8.7865       1207
   8.8462       1166
   8.9058       1160
   8.9655       1144
   9.0251       1062
   9.0848       1066
   9.1444       1003
   9.2041       1015
   9.2637        959
   9.3234        989
   9.3831        974
   9.4427        972
   9.5024        898
   9.5620        903
   9.6217        797
   9.6813        921
   9.7410        858
   9.8006        877
   9.8603        845
   9.9199        832
   9.9796        834
  10.0393        848
  10.0989        809
  10.1586        780
  10.2182        808
  10.2779        828
  10.3375        789
  10.3972        787
  10.4568        775
  10.5165        808
  10.5761        760
  10.6358        794
  10.6955        750
  10.7551        807
  10.8148        825
  10.8744        821
  10.9341        771
  10.9937        797
  11.0534        756
  11.1130        802
  11.1727        835
  11.2323        886
  11.2920        822
  11.3517        790
  11.4113        771
  11.4710        799
  11.5306        770
  11.5903        775
  11.6499        783
  11.7096        759
  11.7692        759
  11.8289        759
  11.8886        743
  11.9482        738
  12.0079        766
  12.0675        810
  12.1272        735
  12.1868        769
  12.2465        721
  12.3061        770
  12.3658        765
  12.4254        738
  12.4851        772
  12.5448        767
  12.6044        711
  12.6641        706
  12.7237        676
  12.7834        759
  12.8430        735
  12.9027        696
  12.9623        714
  13.0220        707
  13.0816        751
  13.1413        710
  13.2010        717
  13.2606        782
  13.3203        724
  13.3799        684
  13.4396        607
  13.4992        717
  13.5589        704
  13.6185        708
  13.6782        707
  13.7378        719
  13.7975        656
  13.8572        673
  13.9168        653
  13.9765        650
  14.0361        701
  14.0958        642
  14.1554        659
  14.2151        665
  14.2747        696
  14.3344        636
  14.3940        676
  14.4537        606
  14.5134        688
  14.5730        635
  14.6327        661
  14.6923        637
  14.7520        625
  14.8116        630
  14.8713        605
  14.9309        663
  14.9906        606
  15.0502        607
  15.1099        639
  15.1696        637
  15.2292        578
  15.2889        596
  15.3485        595
  15.4082        575
  15.4678        609
  15.5275        621
  15.5871        641
  15.6468        640
  15.7065        632
  15.7661        597
  15.8258        597
  15.8854        579
  15.9451        575
  16.0047        614
  16.0644        579
  16.1240        576
  16.1837        602
  16.2433        595
  16.3030        589
  16.3627        603
  16.4223        607
  16.4820        601
  16.5416        564
  16.6013        562
  16.6609        581
  16.7206        570
  16.7802        567
  16.8399        588
  16.8995        564
  16.9592        572
  17.0189        562
  17.0785        553
  17.1382        543
  17.1978        619
  17.2575        544
  17.3171        610
  17.3768        549
  17.4364        603
  17.4961        605
  17.5557        562
  17.6154        595
  17.6751        574
  17.7347        609
  17.7944        604
  17.8540        558
  17.9137        555
  17.9733        540
  18.0330        569
  18.0926        557
  18.1523        547
  18.2119        559
  18.2716        494
  18.3313        565
  18.3909        526
  18.4506        563
  18.5102        566
  18.5699        566
  18.6295        535
  18.6892        543
  18.7488        542
  18.8085        549
  18.8682        536
  18.9278        533
  18.9875        562
  19.0471        533
  19.1068        530
  19.1664        574
  19.2261        529
  19.2857        512
  19.3454        500
  19.4050        562
  19.4647        542
  19.5244        555
  19.5840        566
  19.6437        535
  19.7033        534
  19.7630        523
  19.8226        522
  19.8823        528
  19.9419        454
  20.0016        513
  20.0612        518
  20.1209        502
  20.1806        518
  20.2402        504
  20.2999        501
  20.3595        486
  20.4192        484
  20.4788        483
  20.5385        501
  20.5981        495
  20.6578        495
  20.7174        484
  20.7771        510
  20.8368        489
  20.8964        542
  20.9561        492
  21.0157        539
  21.0754        500
  21.1350        538
  21.1947        500
  21.2543        547
  21.3140        488
  21.3736        492
  21.4333        518
  21.4930        525
  21.5526        509
  21.6123        516
  21.6719        471
  21.7316        491
  21.7912        546
  21.8509        485
  21.9105        503
  21.9702        510
  22.0298        524
  22.0895        514
  22.1492        524
  22.2088        534
  22.2685        497
  22.3281        491
  22.3878        510
  22.4474        497
  22.5071        494
  22.5667        507
  22.6264        496
  22.6861        543
  22.7457        510
  22.8054        553
  22.8650        497
  22.9247        542
  22.9843        551
  23.0440        517
  23.1036        534
  23.1633        545
  23.2229        519
  23.2826        568
  23.3423        590
  23.4019        596
  23.4616        637
  23.5212        690
  23.5809        754
  23.6405        788
  23.7002        806
  23.7598        737
  23.8195        727
  23.8791        686
  23.9388        736
  23.9985        647
  24.0581        601
  24.1178        586
  24.1774        595
  24.2371        622
  24.2967        606
  24.3564        611
  24.4160        543
  24.4757        593
  24.5353        600
  24.5950        623
  24.6547        565
  24.7143        577
  24.7740        627
  24.8336        622
  24.8933        609
  24.9529        657
  25.0126        654
  25.0722        659
  25.1319        659
  25.1915        685
  25.2512        650
  25.3109        645
  25.3705        641
  25.4302        621
  25.4898        654
  25.5495        636
  25.6091        688
  25.6688        670
  25.7284        656
  25.7881        696
  25.8478        679
  25.9074        658
  25.9671        696
  26.0267        720
  26.0864        671
  26.1460        655
  26.2057        686
  26.2653        687
  26.3250        710
  26.3846        737
  26.4443        807
  26.5040        742
  26.5636        708
  26.6233        768
  26.6829        761
  26.7426        723
  26.8022        794
  26.8619        784
  26.9215        780
  26.9812        787
  27.0408        810
  27.1005        801
  27.1602        857
  27.2198        802
  27.2795        867
  27.3391        885
  27.3988        967
  27.4584        916
  27.5181        975
  27.5777       1004
  27.6374       1125
  27.6970       1166
  27.7567       1266
  27.8164       1468
  27.8760       1774
  27.9357       2025
  27.9953       2480
  28.0550       2868
  28.1146       3118
  28.1743       3142
  28.2339       2690
  28.2936       2377
  28.3532       1949
  28.4129       1647
  28.4726       1427
  28.5322       1320
  28.5919       1224
  28.6515       1170
  28.7112       1044
  28.7708       1100
  28.8305       1136
  28.8901       1273
  28.9498       1361
  29.0094       1436
  29.0691       1242
  29.1288       1130
  29.1884       1003
  29.2481        874
  29.3077        845
  29.3674        841
  29.4270        873
  29.4867        833
  29.5463        871
  29.6060        766
  29.6657        770
  29.7253        718
  29.7850        821
  29.8446        727
  29.9043        802
  29.9639        767
  30.0236        785
  30.0832        798
  30.1429        736
  30.2025        781
  30.2622        699
  30.3219        761
  30.3815        719
  30.4412        763
  30.5008        685
  30.5605        762
  30.6201        722
  30.6798        727
  30.7394        733
  30.7991        762
  30.8587        795
  30.9184        739
  30.9781        750
  31.0377        749
  31.0974        730
  31.1570        818
  31.2167        784
  31.2763        771
  31.3360        848
  31.3956        857
  31.4553       1008
  31.5149       1157
  31.5746       1324
  31.6343       1512
  31.6939       1519
  31.7536       1462
  31.8132       1333
  31.8729       1143
  31.9325        994
  31.9922        870
  32.0518        816
  32.1115        729
  32.1711        707
  32.2308        697
  32.2905        708
  32.3501        648
  32.4098        609
  32.4694        572
  32.5291        607
  32.5887        616
  32.6484        672
  32.7080        639
  32.7677        661
  32.8273        633
  32.8870        660
  32.9467        663
  33.0063        694
  33.0660        653
  33.1256        652
  33.1853        618
  33.2449        603
  33.3046        567
  33.3642        577
  33.4239        551
  33.4836        553
  33.5432        603
  33.6029        599
  33.6625        597
  33.7222        615
  33.7818        630
  33.8415        654
  33.9011        659
  33.9608        679
  34.0204        647
  34.0801        645
  34.1398        688
  34.1994        713
  34.2591        726
  34.3187        657
  34.3784        700
  34.4380        715
  34.4977        670
  34.5573        723
  34.6170        647
  34.6766        636
  34.7363        641
  34.7960        560
  34.8556        572
  34.9153        550
  34.9749        539
  35.0346        534
  35.0942        534
  35.1539        474
  35.2135        476
  35.2732        501
  35.3328        524
  35.3925        500
  35.4522        482
  35.5118        451
  35.5715        437
  35.6311        426
  35.6908        447
  35.7504        395
  35.8101        452
  35.8697        419
  35.9294        439
  35.9890        437
  36.0487        434
  36.1084        449
  36.1680        457
  36.2277        404
  36.2873        422
  36.3470        449
  36.4066        373
  36.4663        415
  36.5259        401
  36.5856        387
  36.6453        412
  36.7049        396
  36.7646        364
  36.8242        377
  36.8839        394
  36.9435        395
  37.0032        382
  37.0628        398
  37.1225        368
  37.1821        387
  37.2418        372
  37.3015        373
  37.3611        399
  37.4208        378
  37.4804        348
  37.5401        363
  37.5997        353
  37.6594        373
  37.7190        395
  37.7787        380
  37.8383        361
  37.8980        402
  37.9577        339
  38.0173        369
  38.0770        349
  38.1366        343
  38.1963        383
  38.2559        352
  38.3156        364
  38.3752        341
  38.4349        335
  38.4945        358
  38.5542        343
  38.6139        360
  38.6735        344
  38.7332        369
  38.7928        326
  38.8525        354
  38.9121        350
  38.9718        343
  39.0314        347
  39.0911        337
  39.1507        373
  39.2104        341
  39.2701        339
  39.3297        343
  39.3894        355
  39.4490        308
  39.5087        335
  39.5683        386
  39.6280        383
  39.6876        328
  39.7473        356
  39.8069        395
  39.8666        396
  39.9263        331
  39.9859        405
  40.0456        374
  40.1052        385
  40.1649        358
  40.2245        403
  40.2842        388
  40.3438        401
  40.4035        410
  40.4632        404
  40.5228        424
  40.5825        444
  40.6421        456
  40.7018        498
  40.7614        519
  40.8211        509
  40.8807        524
  40.9404        536
  41.0000        526
  41.0597        539
  41.1194        488
  41.1790        482
  41.2387        456
  41.2983        440
  41.3580        429
  41.4176        434
  41.4773        420
  41.5369        383
  41.5966        404
  41.6562        404
  41.7159        388
  41.7756        393
  41.8352        396
  41.8949        396
  41.9545        352
  42.0142        384
  42.0738        390
  42.1335        401
  42.1931        411
  42.2528        381
  42.3124        321
  42.3721        370
  42.4318        378
  42.4914        412
  42.5511        397
  42.6107        387
  42.6704        402
  42.7300        389
  42.7897        362
  42.8493        401
  42.9090        397
  42.9686        426
  43.0283        436
  43.0880        392
  43.1476        398
  43.2073        382
  43.2669        394
  43.3266        411
  43.3862        381
  43.4459        396
  43.5055        419
  43.5652        451
  43.6249        408
  43.6845        400
  43.7442        438
  43.8038        397
  43.8635        413
  43.9231        414
  43.9828        451
  44.0424        404
  44.1021        430
  44.1617        437
  44.2214        387
  44.2811        431
  44.3407        435
  44.4004        469
  44.4600        433
  44.5197        437
  44.5793        461
  44.6390        426
  44.6986        420
  44.7583        478
  44.8179        485
  44.8776        452
  44.9373        505
  44.9969        539
  45.0566        503
  45.1162        509
  45.1759        559
  45.2355        588
  45.2952        654
  45.3548        673
  45.4145        692
  45.4741        777
  45.5338        731
  45.5935        721
  45.6531        676
  45.7128        620
  45.7724        583
  45.8321        557
  45.8917        541
  45.9514        547
  46.0110        536
  46.0707        487
  46.1303        526
  46.1900        493
  46.2497        500
  46.3093        512
  46.3690        451
  46.4286        498
  46.4883        507
  46.5479        526
  46.6076        519
  46.6672        529
  46.7269        503
  46.7865        458
  46.8462        520
  46.9059        517
  46.9655        484
  47.0252        513
  47.0848        520
  47.1445        573
  47.2041        595
  47.2638        618
  47.3234        636
  47.3831        718
  47.4428        693
  47.5024        706
  47.5621        673
  47.6217        680
  47.6814        656
  47.7410        651
  47.8007        610
  47.8603        620
  47.9200        603
  47.9796        555
  48.0393        557
  48.0990        585
  48.1586        573
  48.2183        547
  48.2779        532
  48.3376        446
  48.3972        531
  48.4569        478
  48.5165        494
  48.5762        523
  48.6358        508
  48.6955        527
  48.7552        493
  48.8148        529
  48.8745        492
  48.9341        503
  48.9938        465
  49.0534        499
  49.1131        441
  49.1727        474
  49.2324        469
  49.2920        430
  49.3517        498
  49.4114        430
  49.4710        430
  49.5307        429
  49.5903        445
  49.6500        430
  49.7096        430
  49.7693        398
  49.8289        387
  49.8886        428
  49.9482        419
  50.0079        412
  50.0676        410
  50.1272        365
  50.1869        412
  50.2465        384
  50.3062        392
  50.3658        408
  50.4255        420
  50.4851        414
  50.5448        405
  50.6045        424
  50.6641        405
  50.7238        432
  50.7834        432
  50.8431        384
  50.9027        412
  50.9624        421
  51.0220        358
  51.0817        446
  51.1413        406
  51.2010        411
  51.2607        413
  51.3203        376
  51.3800        390
  51.4396        446
  51.4993        431
  51.5589        424
  51.6186        456
  51.6782        401
  51.7379        418
  51.7975        458
  51.8572        458
  51.9169        471
  51.9765        474
  52.0362        509
  52.0958        479
  52.1555        461
  52.2151        474
  52.2748        462
  52.3344        479
  52.3941        429
  52.4537        457
  52.5134        424
  52.5731        423
  52.6327        420
  52.6924        471
  52.7520        424
  52.8117        427
  52.8713        478
  52.9310        419
  52.9906        433
  53.0503        420
  53.1099        438
  53.1696        416
  53.2293        446
  53.2889        427
  53.3486        422
  53.4082        414
  53.4679        403
  53.5275        459
  53.5872        517
  53.6468        464
  53.7065        458
  53.7661        454
  53.8258        505
  53.8855        501
  53.9451        552
  54.0048        521
  54.0644        642
  54.1241        654
  54.1837        684
  54.2434        708
  54.3030        752
  54.3627        772
  54.4224        724
  54.4820        769
  54.5417        712
  54.6013        647
  54.6610        660
  54.7206        604
  54.7803        621
  54.8399        565
  54.8996        533
  54.9592        547
  55.0189        533
  55.0786        496
  55.1382        466
  55.1979        411
  55.2575        446
  55.3172        403
  55.3768        444
  55.4365        435
  55.4961        439
  55.5558        433
  55.6154        400
  55.6751        448
  55.7348        421
  55.7944        419
  55.8541        438
  55.9137        384
  55.9734        457
  56.0330        414
  56.0927        431
  56.1523        431
  56.2120        441
  56.2716        427
  56.3313        470
  56.3910        428
  56.4506        432
  56.5103        399
  56.5699        418
  56.6296        414
  56.6892        456
  56.7489        446
  56.8085        425
  56.8682        396
  56.9278        426
  56.9875        452
  57.0472        418
  57.1068        421
  57.1665        465
  57.2261        405
  57.2858        418
  57.3454        455
  57.4051        429
  57.4647        475
  57.5244        485
  57.5841        498
  57.6437        451
  57.7034        538
  57.7630        490
  57.8227        548
  57.8823        518
  57.9420        524
  58.0016        566
  58.0613        525
  58.1209        545
  58.1806        570
  58.2403        525
  58.2999        539
  58.3596        524
  58.4192        499
  58.4789        466
  58.5385        467
  58.5982        512
  58.6578        475
  58.7175        446
  58.7771        408
  58.8368        431
  58.8965        450
  58.9561        390
  59.0158        418
  59.0754        422
  59.1351        399
  59.1947        405
  59.2544        376
  59.3140        389
  59.3737        386
  59.4333        369
  59.4930        395
  59.5527        358
  59.6123        340
  59.6720        380
  59.7316        360
  59.7913        349
  59.8509        379
  59.9106        350
  59.9702        354
  60.0299        373
  60.0895        355
  60.1492        384
  60.2089        369
  60.2685        322
  60.3282        338
  60.3878        368
  60.4475        360
  60.5071        352
  60.5668        341
  60.6264        341
  60.6861        326
  60.7457        332
  60.8054        325
  60.8651        371
  60.9247        319
  60.9844        341
  61.0440        320
  61.1037        359
  61.1633        309
  61.2230        313
  61.2826        339
  61.3423        313
  61.4020        328
  61.4616        352
  61.5213        303
  61.5809        322
  61.6406        303
  61.7002        319
  61.7599        320
  61.8195        306
  61.8792        330
  61.9388        331
  61.9985        299
  62.0582        315
  62.1178        323
  62.1775        306
  62.2371        316
  62.2968        331
  62.3564        325
  62.4161        318
  62.4757        346
  62.5354        321
  62.5950        325
  62.6547        352
  62.7144        345
  62.7740        278
  62.8337        264
  62.8933        304
  62.9530        322
  63.0126        284
  63.0723        306
  63.1319        296
  63.1916        283
  63.2512        297
  63.3109        292
  63.3706        296
  63.4302        298
  63.4899        296
  63.5495        295
  63.6092        280
  63.6688        291
  63.7285        260
  63.7881        256
  63.8478        282
  63.9074        310
  63.9671        294
  64.0268        285
  64.0864        263
  64.1461        285
  64.2057        272
  64.2654        296
  64.3250        263
  64.3847        290
  64.4443        248
  64.5040        259
  64.5637        267
  64.6233        266
  64.6830        255
  64.7426        262
  64.8023        257
  64.8619        290
  64.9216        265
  64.9812        289
  65.0409        270
  65.1005        277
  65.1602        313
  65.2199        271
  65.2795        250
  65.3392        256
  65.3988        287
  65.4585        245
  65.5181        283
  65.5778        281
  65.6374        256
  65.6971        274
  65.7567        276
  65.8164        264
  65.8761        270
  65.9357        283
  65.9954        262
  66.0550        301
  66.1147        260
  66.1743        312
  66.2340        342
  66.2936        302
  66.3533        314
  66.4129        294
  66.4726        296
  66.5323        317
  66.5919        256
  66.6516        300
  66.7112        285
  66.7709        263
  66.8305        273
  66.8902        244
  66.9498        272
  67.0095        260
  67.0691        290
  67.1288        271
  67.1885        286
  67.2481        273
  67.3078        278
  67.3674        259
  67.4271        256
  67.4867        269
  67.5464        282
  67.6060        265
  67.6657        306
  67.7253        246
  67.7850        271
  67.8447        241
  67.9043        241
  67.9640        278
  68.0236        240
  68.0833        270
  68.1429        219
  68.2026        247
  68.2622        251
  68.3219        238
  68.3816        247
  68.4412        252
  68.5009        254
  68.5605        251
  68.6202        257
  68.6798        246
  68.7395        264
  68.7991        254
  68.8588        278
  68.9184        260
  68.9781        245
  69.0378        262
  69.0974        265
  69.1571        260
  69.2167        252
  69.2764        252
  69.3360        263
  69.3957        235
  69.4553        245
  69.5150        250
  69.5746        255
  69.6343        260
  69.6940        232
  69.7536        245
  69.8133        237
  69.8729        238
  69.9326        236
  69.9922        263
  70.0519        240
  70.1115        244
  70.1712        235
  70.2308        241
  70.2905        252
  70.3502        227
  70.4098        251
  70.4695        253
  70.5291        229
  70.5888        239
  70.6484        241
  70.7081        256
  70.7677        249
  70.8274        246
  70.8870        275
  70.9467        245
  71.0064        246
  71.0660        253
  71.1257        240
  71.1853        266
  71.2450        271
  71.3046        269
  71.3643        244
  71.4239        269
  71.4836        246
  71.5433        250
  71.6029        249
  71.6626        285
  71.7222        233
  71.7819        241
  71.8415        252
  71.9012        223
  71.9608        267
  72.0205        246
  72.0801        241
  72.1398        289
  72.1995        269
  72.2591        263
  72.3188        252
  72.3784        279
  72.4381        271
  72.4977        231
  72.5574        272
  72.6170        239
  72.6767        265
  72.7363        268
  72.7960        268
  72.8557        251
  72.9153        279
  72.9750        283
  73.0346        293
  73.0943        267
  73.1539        262
  73.2136        275
  73.2732        278
  73.3329        296
  73.3925        312
  73.4522        273
  73.5119        283
  73.5715        298
  73.6312        298
  73.6908        321
  73.7505        302
  73.8101        300
  73.8698        298
  73.9294        286
  73.9891        279
  74.0487        270
  74.1084        267
  74.1681        291
  74.2277        303
  74.2874        277
  74.3470        264
  74.4067        275
  74.4663        243
  74.5260        252
  74.5856        268
  74.6453        266
  74.7049        248
  74.7646        261
  74.8243        274
  74.8839        298
  74.9436        297
  75.0032        254
  75.0629        286
  75.1225        287
  75.1822        287
  75.2418        296
  75.3015        320
  75.3612        298
  75.4208        281
  75.4805        281
  75.5401        326
  75.5998        331
  75.6594        283
  75.7191        343
  75.7787        289
  75.8384        301
  75.8980        311
  75.9577        317
  76.0174        345
  76.0770        317
  76.1367        278
  76.1963        293
  76.2560        297
  76.3156        299
  76.3753        284
  76.4349        311
  76.4946        298
  76.5542        297
  76.6139        311
  76.6736        311
  76.7332        324
  76.7929        301
  76.8525        321
  76.9122        299
  76.9718        340
  77.0315        317
  77.0911        319
  77.1508        290
  77.2104        308
  77.2701        287
  77.3298        303
  77.3894        318
  77.4491        289
  77.5087        276
  77.5684        290
  77.6280        282
  77.6877        291
  77.7473        295
  77.8070        287
  77.8666        282
  77.9263        254
  77.9860        264
  78.0456        294
  78.1053        236
  78.1649        267
  78.2246        256
  78.2842        280
  78.3439        234
  78.4035        270
  78.4632        259
  78.5229        270
  78.5825        284
  78.6422        229
  78.7018        266
  78.7615        258
  78.8211        230
  78.8808        276
  78.9404        231
  79.0001        236
  79.0597        247
  79.1194        259
  79.1791        273
  79.2387        243
  79.2984        232
  79.3580        230
  79.4177        300
  79.4773        235
  79.5370        259
  79.5966        242
  79.6563        236
  79.7159        230
  79.7756        249
  79.8353        257
  79.8949        225
  79.9546        240
  79.9943        258