File: xrd/SAIFXR190711G-04(D) .uxd
; (content of file E:\SAIF User Data\2019\Adrine Correya RS,ISP,CUSAT\190711G\SAIFXR190711G-04(D).raw)
_FILEVERSION = 2
_SAMPLE = D
_+SAMPLE =
_SITE = "Cochin Uni"
_USER = "Cochin Uni"
_GONIOMETER_CODE = 20
; Goniometer : D8 theta/2theta, stage : Unknown
_SAMPLE_CHANGER_CODE = 0
_ATTACHMENTS_CODE = 0
_GONIOMETER_RADIUS = 217.5
_FIXED_DIVSLIT = 0.15
_FIXED_SAMPLESLIT = 1
_SOLLER_SLITS = 2
_FIXED_DETSLIT = 1
_MONOCHROMATOR = 0
; Incident beam monochromator : None
_THIN_FILM = N
_BETA_FILTER = N
_FIXED_ANTISLIT = 0.15
_ANALYZER_CODE = 0
; Received beam analyzer : None
_DATEMEASURED = "15-Jul-2019 16:34:10"
_WL_UNIT = A
_WL1 = 1.5406
_WL2 = 1.54439
_WL3 = 1.39222
_WLRATIO = 0.5
_ANODE = Cu

; Data for range 1
_DRIVE = COUPLED
_STEPTIME = 59.67
_STEPSIZE = 0.0198849
_STEPMODE = C
_START = 3
_THETA = 1.5
_2THETA = 3
_KHI = 0
_PHI = 0
_X = 0
_Y = 0
_Z = 0
_DETECTOR = 5
; Detector type : Unknown
_DETECTORSLIT = out
_AUX1 = 0
_AUX2 = 0
_AUX3 = 0
_TIMESTARTED = 11
_TEMP_RATE = -1
_TEMP_DELAY = -1
_KV = 40
_MA = 40
_RANGE_WL = 1.5406
_3DPLANE = 0
_V4_COUNTERS_MASK = 4096
_V4_DRIVES_MASK = 0
_V4_ENCODERS_MASK = 0
_2THETACOUNTS = 1
; 2THETA  PSD
   3.0000       1877
   3.0597       1725
   3.1193       1774
   3.1790       1622
   3.2386       1636
   3.2983       1599
   3.3579       1532
   3.4176       1482
   3.4772       1526
   3.5369       1441
   3.5965       1416
   3.6562       1322
   3.7159       1311
   3.7755       1247
   3.8352       1286
   3.8948       1247
   3.9545       1186
   4.0141       1247
   4.0738       1210
   4.1334       1189
   4.1931       1117
   4.2527       1245
   4.3124       1167
   4.3721       1150
   4.4317       1159
   4.4914       1129
   4.5510       1103
   4.6107       1084
   4.6703       1141
   4.7300       1065
   4.7896       1082
   4.8493       1107
   4.9090       1039
   4.9686       1063
   5.0283       1016
   5.0879        992
   5.1476       1019
   5.2072        978
   5.2669       1011
   5.3265        943
   5.3862        938
   5.4458       1004
   5.5055        916
   5.5652        936
   5.6248        928
   5.6845        926
   5.7441        889
   5.8038        867
   5.8634        961
   5.9231        920
   5.9827        846
   6.0424        855
   6.1020        859
   6.1617        822
   6.2214        925
   6.2810        862
   6.3407        862
   6.4003        873
   6.4600        824
   6.5196        870
   6.5793        861
   6.6389        801
   6.6986        830
   6.7582        855
   6.8179        824
   6.8776        812
   6.9372        841
   6.9969        799
   7.0565        792
   7.1162        757
   7.1758        835
   7.2355        789
   7.2951        793
   7.3548        795
   7.4144        808
   7.4741        796
   7.5338        804
   7.5934        790
   7.6531        759
   7.7127        742
   7.7724        761
   7.8320        720
   7.8917        740
   7.9513        701
   8.0110        741
   8.0706        684
   8.1303        757
   8.1900        774
   8.2496        732
   8.3093        751
   8.3689        756
   8.4286        728
   8.4882        710
   8.5479        723
   8.6075        704
   8.6672        689
   8.7269        759
   8.7865        680
   8.8462        721
   8.9058        728
   8.9655        696
   9.0251        726
   9.0848        755
   9.1444        713
   9.2041        727
   9.2637        747
   9.3234        689
   9.3831        680
   9.4427        656
   9.5024        710
   9.5620        683
   9.6217        719
   9.6813        698
   9.7410        693
   9.8006        719
   9.8603        686
   9.9199        685
   9.9796        669
  10.0393        652
  10.0989        702
  10.1586        667
  10.2182        718
  10.2779        691
  10.3375        672
  10.3972        676
  10.4568        637
  10.5165        676
  10.5761        657
  10.6358        644
  10.6955        702
  10.7551        691
  10.8148        679
  10.8744        649
  10.9341        628
  10.9937        663
  11.0534        677
  11.1130        670
  11.1727        659
  11.2323        701
  11.2920        629
  11.3517        628
  11.4113        651
  11.4710        647
  11.5306        623
  11.5903        677
  11.6499        618
  11.7096        631
  11.7692        647
  11.8289        655
  11.8886        648
  11.9482        638
  12.0079        664
  12.0675        615
  12.1272        606
  12.1868        687
  12.2465        645
  12.3061        633
  12.3658        672
  12.4254        686
  12.4851        731
  12.5448        742
  12.6044        766
  12.6641        748
  12.7237        810
  12.7834        873
  12.8430        812
  12.9027        754
  12.9623        690
  13.0220        658
  13.0816        648
  13.1413        633
  13.2010        630
  13.2606        627
  13.3203        596
  13.3799        547
  13.4396        592
  13.4992        542
  13.5589        599
  13.6185        591
  13.6782        602
  13.7378        557
  13.7975        582
  13.8572        530
  13.9168        557
  13.9765        548
  14.0361        537
  14.0958        555
  14.1554        545
  14.2151        536
  14.2747        492
  14.3344        544
  14.3940        489
  14.4537        529
  14.5134        524
  14.5730        557
  14.6327        550
  14.6923        628
  14.7520        543
  14.8116        524
  14.8713        532
  14.9309        536
  14.9906        500
  15.0502        513
  15.1099        516
  15.1696        532
  15.2292        513
  15.2889        487
  15.3485        475
  15.4082        523
  15.4678        510
  15.5275        474
  15.5871        503
  15.6468        493
  15.7065        481
  15.7661        529
  15.8258        490
  15.8854        519
  15.9451        546
  16.0047        559
  16.0644        630
  16.1240        582
  16.1837        534
  16.2433        490
  16.3030        486
  16.3627        479
  16.4223        465
  16.4820        506
  16.5416        516
  16.6013        463
  16.6609        501
  16.7206        462
  16.7802        438
  16.8399        469
  16.8995        441
  16.9592        450
  17.0189        447
  17.0785        462
  17.1382        454
  17.1978        460
  17.2575        435
  17.3171        408
  17.3768        460
  17.4364        471
  17.4961        410
  17.5557        420
  17.6154        458
  17.6751        465
  17.7347        448
  17.7944        446
  17.8540        441
  17.9137        470
  17.9733        423
  18.0330        428
  18.0926        393
  18.1523        388
  18.2119        440
  18.2716        392
  18.3313        444
  18.3909        437
  18.4506        410
  18.5102        431
  18.5699        459
  18.6295        410
  18.6892        415
  18.7488        403
  18.8085        410
  18.8682        415
  18.9278        420
  18.9875        408
  19.0471        395
  19.1068        416
  19.1664        430
  19.2261        388
  19.2857        401
  19.3454        397
  19.4050        419
  19.4647        415
  19.5244        406
  19.5840        408
  19.6437        397
  19.7033        350
  19.7630        405
  19.8226        437
  19.8823        427
  19.9419        379
  20.0016        406
  20.0612        419
  20.1209        363
  20.1806        357
  20.2402        390
  20.2999        395
  20.3595        364
  20.4192        414
  20.4788        415
  20.5385        389
  20.5981        365
  20.6578        410
  20.7174        328
  20.7771        368
  20.8368        364
  20.8964        386
  20.9561        381
  21.0157        383
  21.0754        398
  21.1350        357
  21.1947        383
  21.2543        387
  21.3140        399
  21.3736        404
  21.4333        429
  21.4930        469
  21.5526        461
  21.6123        459
  21.6719        426
  21.7316        370
  21.7912        407
  21.8509        374
  21.9105        396
  21.9702        360
  22.0298        352
  22.0895        381
  22.1492        361
  22.2088        371
  22.2685        362
  22.3281        349
  22.3878        399
  22.4474        404
  22.5071        409
  22.5667        401
  22.6264        381
  22.6861        412
  22.7457        420
  22.8054        393
  22.8650        416
  22.9247        410
  22.9843        488
  23.0440        513
  23.1036        639
  23.1633        748
  23.2229        675
  23.2826        567
  23.3423        506
  23.4019        543
  23.4616        473
  23.5212        573
  23.5809        657
  23.6405        794
  23.7002        975
  23.7598        931
  23.8195        866
  23.8791        819
  23.9388        675
  23.9985        561
  24.0581        492
  24.1178        504
  24.1774        429
  24.2371        427
  24.2967        427
  24.3564        439
  24.4160        440
  24.4757        411
  24.5353        433
  24.5950        422
  24.6547        361
  24.7143        371
  24.7740        329
  24.8336        332
  24.8933        372
  24.9529        368
  25.0126        405
  25.0722        407
  25.1319        403
  25.1915        428
  25.2512        422
  25.3109        400
  25.3705        416
  25.4302        413
  25.4898        430
  25.5495        504
  25.6091        544
  25.6688        471
  25.7284        485
  25.7881        489
  25.8478        466
  25.9074        520
  25.9671        464
  26.0267        430
  26.0864        436
  26.1460        424
  26.2057        406
  26.2653        394
  26.3250        432
  26.3846        394
  26.4443        351
  26.5040        417
  26.5636        404
  26.6233        440
  26.6829        470
  26.7426        570
  26.8022        608
  26.8619        569
  26.9215        505
  26.9812        559
  27.0408        548
  27.1005        521
  27.1602        629
  27.2198        840
  27.2795        898
  27.3391        658
  27.3988        565
  27.4584        507
  27.5181        540
  27.5777        517
  27.6374        564
  27.6970        696
  27.7567       1324
  27.8164       1855
  27.8760       1604
  27.9357       1047
  27.9953        681
  28.0550        563
  28.1146        519
  28.1743        471
  28.2339        486
  28.2936        443
  28.3532        477
  28.4129        474
  28.4726        500
  28.5322        488
  28.5919        482
  28.6515        518
  28.7112        484
  28.7708        530
  28.8305        477
  28.8901        494
  28.9498        491
  29.0094        521
  29.0691        544
  29.1288        562
  29.1884        597
  29.2481        612
  29.3077        624
  29.3674        655
  29.4270        702
  29.4867        757
  29.5463        802
  29.6060        989
  29.6657       1200
  29.7253       1459
  29.7850       1842
  29.8446       2349
  29.9043       2768
  29.9639       2884
  30.0236       2762
  30.0832       2533
  30.1429       2269
  30.2025       1928
  30.2622       1546
  30.3219       1211
  30.3815        987
  30.4412        909
  30.5008        757
  30.5605        645
  30.6201        607
  30.6798        569
  30.7394        504
  30.7991        510
  30.8587        460
  30.9184        455
  30.9781        397
  31.0377        404
  31.0974        433
  31.1570        406
  31.2167        422
  31.2763        406
  31.3360        396
  31.3956        454
  31.4553        465
  31.5149        515
  31.5746        565
  31.6343        475
  31.6939        439
  31.7536        393
  31.8132        375
  31.8729        432
  31.9325        401
  31.9922        418
  32.0518        403
  32.1115        423
  32.1711        424
  32.2308        493
  32.2905        544
  32.3501        626
  32.4098        784
  32.4694       1002
  32.5291       1326
  32.5887       1651
  32.6484       1626
  32.7080       1478
  32.7677       1280
  32.8273       1142
  32.8870       1083
  32.9467        890
  33.0063        738
  33.0660        693
  33.1256        585
  33.1853        491
  33.2449        453
  33.3046        343
  33.3642        353
  33.4239        361
  33.4836        340
  33.5432        341
  33.6029        318
  33.6625        327
  33.7222        325
  33.7818        350
  33.8415        307
  33.9011        294
  33.9608        314
  34.0204        309
  34.0801        302
  34.1398        312
  34.1994        283
  34.2591        280
  34.3187        316
  34.3784        313
  34.4380        287
  34.4977        324
  34.5573        354
  34.6170        303
  34.6766        320
  34.7363        291
  34.7960        336
  34.8556        358
  34.9153        363
  34.9749        349
  35.0346        371
  35.0942        376
  35.1539        338
  35.2135        376
  35.2732        380
  35.3328        329
  35.3925        284
  35.4522        287
  35.5118        281
  35.5715        265
  35.6311        274
  35.6908        290
  35.7504        261
  35.8101        290
  35.8697        290
  35.9294        318
  35.9890        269
  36.0487        290
  36.1084        263
  36.1680        267
  36.2277        273
  36.2873        234
  36.3470        212
  36.4066        279
  36.4663        260
  36.5259        250
  36.5856        313
  36.6453        281
  36.7049        314
  36.7646        328
  36.8242        298
  36.8839        313
  36.9435        300
  37.0032        296
  37.0628        287
  37.1225        313
  37.1821        255
  37.2418        264
  37.3015        272
  37.3611        306
  37.4208        332
  37.4804        304
  37.5401        301
  37.5997        302
  37.6594        301
  37.7190        322
  37.7787        338
  37.8383        300
  37.8980        334
  37.9577        360
  38.0173        306
  38.0770        326
  38.1366        344
  38.1963        360
  38.2559        357
  38.3156        334
  38.3752        322
  38.4349        289
  38.4945        305
  38.5542        300
  38.6139        277
  38.6735        303
  38.7332        285
  38.7928        272
  38.8525        266
  38.9121        294
  38.9718        320
  39.0314        304
  39.0911        327
  39.1507        365
  39.2104        367
  39.2701        391
  39.3297        393
  39.3894        458
  39.4490        447
  39.5087        488
  39.5683        521
  39.6280        484
  39.6876        486
  39.7473        482
  39.8069        381
  39.8666        376
  39.9263        356
  39.9859        295
  40.0456        293
  40.1052        309
  40.1649        310
  40.2245        278
  40.2842        265
  40.3438        282
  40.4035        255
  40.4632        248
  40.5228        260
  40.5825        250
  40.6421        211
  40.7018        249
  40.7614        226
  40.8211        214
  40.8807        253
  40.9404        230
  41.0000        258
  41.0597        259
  41.1194        286
  41.1790        248
  41.2387        270
  41.2983        250
  41.3580        271
  41.4176        271
  41.4773        261
  41.5369        287
  41.5966        287
  41.6562        291
  41.7159        309
  41.7756        343
  41.8352        360
  41.8949        409
  41.9545        475
  42.0142        511
  42.0738        593
  42.1335        531
  42.1931        528
  42.2528        492
  42.3124        424
  42.3721        354
  42.4318        356
  42.4914        314
  42.5511        309
  42.6107        269
  42.6704        288
  42.7300        255
  42.7897        241
  42.8493        274
  42.9090        255
  42.9686        250
  43.0283        269
  43.0880        226
  43.1476        194
  43.2073        249
  43.2669        230
  43.3266        218
  43.3862        230
  43.4459        236
  43.5055        265
  43.5652        217
  43.6249        236
  43.6845        254
  43.7442        238
  43.8038        231
  43.8635        249
  43.9231        222
  43.9828        245
  44.0424        240
  44.1021        233
  44.1617        239
  44.2214        220
  44.2811        216
  44.3407        224
  44.4004        249
  44.4600        204
  44.5197        217
  44.5793        238
  44.6390        238
  44.6986        228
  44.7583        247
  44.8179        220
  44.8776        250
  44.9373        245
  44.9969        253
  45.0566        259
  45.1162        262
  45.1759        252
  45.2355        222
  45.2952        245
  45.3548        243
  45.4145        269
  45.4741        242
  45.5338        266
  45.5935        236
  45.6531        268
  45.7128        272
  45.7724        268
  45.8321        284
  45.8917        331
  45.9514        419
  46.0110        515
  46.0707        607
  46.1303        519
  46.1900        530
  46.2497        404
  46.3093        373
  46.3690        365
  46.4286        337
  46.4883        366
  46.5479        397
  46.6076        489
  46.6672        535
  46.7269        633
  46.7865        697
  46.8462        721
  46.9059        673
  46.9655        700
  47.0252        628
  47.0848        709
  47.1445        674
  47.2041        592
  47.2638        546
  47.3234        459
  47.3831        419
  47.4428        361
  47.5024        354
  47.5621        329
  47.6217        341
  47.6814        358
  47.7410        372
  47.8007        352
  47.8603        275
  47.9200        325
  47.9796        317
  48.0393        279
  48.0990        291
  48.1586        311
  48.2183        335
  48.2779        274
  48.3376        315
  48.3972        315
  48.4569        328
  48.5165        347
  48.5762        326
  48.6358        324
  48.6955        325
  48.7552        309
  48.8148        302
  48.8745        331
  48.9341        297
  48.9938        316
  49.0534        307
  49.1131        273
  49.1727        279
  49.2324        284
  49.2920        274
  49.3517        290
  49.4114        259
  49.4710        314
  49.5307        313
  49.5903        295
  49.6500        297
  49.7096        316
  49.7693        347
  49.8289        315
  49.8886        306
  49.9482        320
  50.0079        275
  50.0676        295
  50.1272        301
  50.1869        287
  50.2465        308
  50.3062        304
  50.3658        270
  50.4255        310
  50.4851        294
  50.5448        274
  50.6045        280
  50.6641        313
  50.7238        284
  50.7834        279
  50.8431        301
  50.9027        328
  50.9624        307
  51.0220        319
  51.0817        364
  51.1413        437
  51.2010        466
  51.2607        518
  51.3203        504
  51.3800        500
  51.4396        490
  51.4993        517
  51.5589        524
  51.6186        479
  51.6782        483
  51.7379        492
  51.7975        523
  51.8572        547
  51.9169        556
  51.9765        582
  52.0362        589
  52.0958        539
  52.1555        570
  52.2151        523
  52.2748        544
  52.3344        509
  52.3941        446
  52.4537        420
  52.5134        387
  52.5731        381
  52.6327        341
  52.6924        379
  52.7520        375
  52.8117        373
  52.8713        389
  52.9310        392
  52.9906        395
  53.0503        414
  53.1099        471
  53.1696        439
  53.2293        473
  53.2889        398
  53.3486        414
  53.4082        365
  53.4679        377
  53.5275        296
  53.5872        316
  53.6468        265
  53.7065        274
  53.7661        336
  53.8258        309
  53.8855        357
  53.9451        375
  54.0048        425
  54.0644        443
  54.1241        432
  54.1837        396
  54.2434        385
  54.3030        388
  54.3627        351
  54.4224        324
  54.4820        325
  54.5417        322
  54.6013        307
  54.6610        335
  54.7206        285
  54.7803        308
  54.8399        287
  54.8996        267
  54.9592        284
  55.0189        279
  55.0786        278
  55.1382        307
  55.1979        367
  55.2575        401
  55.3172        517
  55.3768        463
  55.4365        519
  55.4961        416
  55.5558        395
  55.6154        360
  55.6751        356
  55.7348        334
  55.7944        308
  55.8541        339
  55.9137        316
  55.9734        331
  56.0330        280
  56.0927        328
  56.1523        331
  56.2120        355
  56.2716        374
  56.3313        426
  56.3910        475
  56.4506        487
  56.5103        602
  56.5699        646
  56.6296        739
  56.6892        739
  56.7489        831
  56.8085        802
  56.8682        753
  56.9278        727
  56.9875        664
  57.0472        576
  57.1068        544
  57.1665        448
  57.2261        424
  57.2858        385
  57.3454        352
  57.4051        306
  57.4647        296
  57.5244        369
  57.5841        390
  57.6437        339
  57.7034        348
  57.7630        292
  57.8227        273
  57.8823        308
  57.9420        275
  58.0016        251
  58.0613        266
  58.1209        253
  58.1806        231
  58.2403        274
  58.2999        285
  58.3596        242
  58.4192        261
  58.4789        254
  58.5385        244
  58.5982        265
  58.6578        262
  58.7175        250
  58.7771        249
  58.8368        278
  58.8965        244
  58.9561        280
  59.0158        274
  59.0754        260
  59.1351        242
  59.1947        227
  59.2544        236
  59.3140        223
  59.3737        228
  59.4333        212
  59.4930        224
  59.5527        214
  59.6123        199
  59.6720        206
  59.7316        181
  59.7913        167
  59.8509        218
  59.9106        209
  59.9702        200
  60.0299        212
  60.0895        202
  60.1492        191
  60.2089        210
  60.2685        181
  60.3282        184
  60.3878        192
  60.4475        212
  60.5071        191
  60.5668        203
  60.6264        204
  60.6861        215
  60.7457        206
  60.8054        209
  60.8651        198
  60.9247        185
  60.9844        206
  61.0440        211
  61.1037        194
  61.1633        208
  61.2230        230
  61.2826        201
  61.3423        246
  61.4020        246
  61.4616        195
  61.5213        199
  61.5809        232
  61.6406        254
  61.7002        233
  61.7599        230
  61.8195        249
  61.8792        235
  61.9388        269
  61.9985        287
  62.0582        283
  62.1178        292
  62.1775        311
  62.2371        336
  62.2968        338
  62.3564        334
  62.4161        312
  62.4757        326
  62.5354        309
  62.5950        310
  62.6547        296
  62.7144        302
  62.7740        275
  62.8337        272
  62.8933        285
  62.9530        259
  63.0126        258
  63.0723        254
  63.1319        257
  63.1916        246
  63.2512        243
  63.3109        221
  63.3706        247
  63.4302        234
  63.4899        241
  63.5495        228
  63.6092        217
  63.6688        214
  63.7285        206
  63.7881        220
  63.8478        194
  63.9074        229
  63.9671        248
  64.0268        254
  64.0864        203
  64.1461        244
  64.2057        231
  64.2654        233
  64.3250        209
  64.3847        206
  64.4443        215
  64.5040        224
  64.5637        196
  64.6233        176
  64.6830        196
  64.7426        170
  64.8023        185
  64.8619        210
  64.9216        208
  64.9812        182
  65.0409        190
  65.1005        213
  65.1602        224
  65.2199        187
  65.2795        226
  65.3392        212
  65.3988        229
  65.4585        230
  65.5181        208
  65.5778        247
  65.6374        234
  65.6971        215
  65.7567        232
  65.8164        230
  65.8761        241
  65.9357        211
  65.9954        226
  66.0550        222
  66.1147        198
  66.1743        218
  66.2340        199
  66.2936        202
  66.3533        216
  66.4129        215
  66.4726        179
  66.5323        188
  66.5919        163
  66.6516        216
  66.7112        189
  66.7709        174
  66.8305        182
  66.8902        175
  66.9498        197
  67.0095        165
  67.0691        206
  67.1288        160
  67.1885        170
  67.2481        182
  67.3078        185
  67.3674        158
  67.4271        205
  67.4867        206
  67.5464        181
  67.6060        164
  67.6657        190
  67.7253        176
  67.7850        199
  67.8447        189
  67.9043        190
  67.9640        194
  68.0236        191
  68.0833        225
  68.1429        211
  68.2026        235
  68.2622        239
  68.3219        264
  68.3816        278
  68.4412        263
  68.5009        282
  68.5605        264
  68.6202        258
  68.6798        260
  68.7395        243
  68.7991        215
  68.8588        229
  68.9184        267
  68.9781        212
  69.0378        239
  69.0974        236
  69.1571        260
  69.2167        227
  69.2764        247
  69.3360        220
  69.3957        238
  69.4553        223
  69.5150        224
  69.5746        221
  69.6343        212
  69.6940        209
  69.7536        200
  69.8133        183
  69.8729        194
  69.9326        205
  69.9922        211
  70.0519        183
  70.1115        203
  70.1712        168
  70.2308        185
  70.2905        188
  70.3502        167
  70.4098        165
  70.4695        187
  70.5291        183
  70.5888        179
  70.6484        179
  70.7081        180
  70.7677        173
  70.8274        164
  70.8870        159
  70.9467        190
  71.0064        167
  71.0660        169
  71.1257        190
  71.1853        200
  71.2450        171
  71.3046        208
  71.3643        161
  71.4239        178
  71.4836        175
  71.5433        195
  71.6029        188
  71.6626        162
  71.7222        171
  71.7819        200
  71.8415        188
  71.9012        190
  71.9608        175
  72.0205        177
  72.0801        174
  72.1398        174
  72.1995        219
  72.2591        196
  72.3188        214
  72.3784        210
  72.4381        200
  72.4977        211
  72.5574        241
  72.6170        227
  72.6767        225
  72.7363        200
  72.7960        227
  72.8557        233
  72.9153        232
  72.9750        211
  73.0346        223
  73.0943        206
  73.1539        191
  73.2136        204
  73.2732        204
  73.3329        189
  73.3925        181
  73.4522        229
  73.5119        185
  73.5715        194
  73.6312        192
  73.6908        200
  73.7505        213
  73.8101        193
  73.8698        180
  73.9294        193
  73.9891        222
  74.0487        243
  74.1084        228
  74.1681        232
  74.2277        246
  74.2874        245
  74.3470        258
  74.4067        236
  74.4663        240
  74.5260        222
  74.5856        247
  74.6453        214
  74.7049        199
  74.7646        200
  74.8243        175
  74.8839        183
  74.9436        188
  75.0032        192
  75.0629        198
  75.1225        185
  75.1822        209
  75.2418        189
  75.3015        223
  75.3612        219
  75.4208        183
  75.4805        205
  75.5401        205
  75.5998        221
  75.6594        201
  75.7191        213
  75.7787        213
  75.8384        209
  75.8980        226
  75.9577        180
  76.0174        214
  76.0770        205
  76.1367        220
  76.1963        212
  76.2560        196
  76.3156        202
  76.3753        243
  76.4349        209
  76.4946        229
  76.5542        227
  76.6139        231
  76.6736        247
  76.7332        238
  76.7929        263
  76.8525        276
  76.9122        227
  76.9718        235
  77.0315        251
  77.0911        237
  77.1508        217
  77.2104        265
  77.2701        248
  77.3298        233
  77.3894        246
  77.4491        233
  77.5087        228
  77.5684        250
  77.6280        252
  77.6877        268
  77.7473        239
  77.8070        270
  77.8666        248
  77.9263        279
  77.9860        286
  78.0456        260
  78.1053        266
  78.1649        259
  78.2246        209
  78.2842        211
  78.3439        255
  78.4035        251
  78.4632        224
  78.5229        205
  78.5825        205
  78.6422        208
  78.7018        224
  78.7615        220
  78.8211        213
  78.8808        204
  78.9404        208
  79.0001        184
  79.0597        205
  79.1194        174
  79.1791        186
  79.2387        169
  79.2984        171
  79.3580        191
  79.4177        181
  79.4773        184
  79.5370        195
  79.5966        192
  79.6563        203
  79.7159        188
  79.7756        191
  79.8353        190
  79.8949        192
  79.9546        170
  79.9943        173