File: xrd/SAIFXR190711G-02(B) .uxd
; (content of file E:\SAIF User Data\2019\Adrine Correya RS,ISP,CUSAT\190711G\SAIFXR190711G-02(B).raw)
_FILEVERSION = 2
_SAMPLE = B
_+SAMPLE =
_SITE = "Cochin Uni"
_USER = "Cochin Uni"
_GONIOMETER_CODE = 20
; Goniometer : D8 theta/2theta, stage : Unknown
_SAMPLE_CHANGER_CODE = 0
_ATTACHMENTS_CODE = 0
_GONIOMETER_RADIUS = 217.5
_FIXED_DIVSLIT = 0.15
_FIXED_SAMPLESLIT = 1
_SOLLER_SLITS = 2
_FIXED_DETSLIT = 1
_MONOCHROMATOR = 0
; Incident beam monochromator : None
_THIN_FILM = N
_BETA_FILTER = N
_FIXED_ANTISLIT = 0.15
_ANALYZER_CODE = 0
; Received beam analyzer : None
_DATEMEASURED = "15-Jul-2019 15:21:48"
_WL_UNIT = A
_WL1 = 1.5406
_WL2 = 1.54439
_WL3 = 1.39222
_WLRATIO = 0.5
_ANODE = Cu

; Data for range 1
_DRIVE = COUPLED
_STEPTIME = 59.67
_STEPSIZE = 0.0198849
_STEPMODE = C
_START = 3
_THETA = 1.5
_2THETA = 3
_KHI = 0
_PHI = 0
_X = 0
_Y = 0
_Z = 0
_DETECTOR = 5
; Detector type : Unknown
_DETECTORSLIT = out
_AUX1 = 0
_AUX2 = 0
_AUX3 = 0
_TIMESTARTED = 11
_TEMP_RATE = -1
_TEMP_DELAY = -1
_KV = 40
_MA = 40
_RANGE_WL = 1.5406
_3DPLANE = 0
_V4_COUNTERS_MASK = 4096
_V4_DRIVES_MASK = 0
_V4_ENCODERS_MASK = 0
_2THETACOUNTS = 1
; 2THETA  PSD
   3.0000       2307
   3.0597       2227
   3.1193       2182
   3.1790       2115
   3.2386       2109
   3.2983       2007
   3.3579       1950
   3.4176       1852
   3.4772       1791
   3.5369       1847
   3.5965       1782
   3.6562       1741
   3.7159       1691
   3.7755       1640
   3.8352       1676
   3.8948       1634
   3.9545       1586
   4.0141       1583
   4.0738       1552
   4.1334       1531
   4.1931       1522
   4.2527       1555
   4.3124       1568
   4.3721       1512
   4.4317       1463
   4.4914       1496
   4.5510       1566
   4.6107       1520
   4.6703       1457
   4.7300       1467
   4.7896       1464
   4.8493       1379
   4.9090       1468
   4.9686       1389
   5.0283       1356
   5.0879       1369
   5.1476       1403
   5.2072       1415
   5.2669       1366
   5.3265       1332
   5.3862       1322
   5.4458       1301
   5.5055       1277
   5.5652       1276
   5.6248       1258
   5.6845       1267
   5.7441       1266
   5.8038       1251
   5.8634       1222
   5.9231       1220
   5.9827       1207
   6.0424       1185
   6.1020       1220
   6.1617       1156
   6.2214       1155
   6.2810       1142
   6.3407       1228
   6.4003       1093
   6.4600       1143
   6.5196       1134
   6.5793       1098
   6.6389       1146
   6.6986       1069
   6.7582        990
   6.8179       1088
   6.8776       1087
   6.9372       1034
   6.9969       1085
   7.0565       1073
   7.1162       1046
   7.1758       1067
   7.2355       1006
   7.2951       1012
   7.3548        969
   7.4144        991
   7.4741        965
   7.5338       1011
   7.5934        999
   7.6531        981
   7.7127        966
   7.7724        936
   7.8320        930
   7.8917        935
   7.9513        887
   8.0110       1016
   8.0706       1028
   8.1303        880
   8.1900        958
   8.2496        859
   8.3093        893
   8.3689        951
   8.4286        894
   8.4882        900
   8.5479        906
   8.6075        850
   8.6672        830
   8.7269        862
   8.7865        889
   8.8462        838
   8.9058        840
   8.9655        855
   9.0251        843
   9.0848        888
   9.1444        834
   9.2041        813
   9.2637        829
   9.3234        788
   9.3831        829
   9.4427        871
   9.5024        768
   9.5620        804
   9.6217        782
   9.6813        778
   9.7410        745
   9.8006        775
   9.8603        759
   9.9199        744
   9.9796        766
  10.0393        789
  10.0989        793
  10.1586        842
  10.2182        813
  10.2779        769
  10.3375        738
  10.3972        790
  10.4568        828
  10.5165        824
  10.5761       1000
  10.6358       1079
  10.6955        947
  10.7551        825
  10.8148        785
  10.8744        785
  10.9341        734
  10.9937        766
  11.0534        768
  11.1130        778
  11.1727        749
  11.2323        774
  11.2920        716
  11.3517        743
  11.4113        699
  11.4710        715
  11.5306        755
  11.5903        748
  11.6499        812
  11.7096        807
  11.7692        744
  11.8289        768
  11.8886        762
  11.9482        768
  12.0079        761
  12.0675        768
  12.1272        817
  12.1868        781
  12.2465        795
  12.3061        794
  12.3658        776
  12.4254        824
  12.4851        853
  12.5448        856
  12.6044        838
  12.6641        857
  12.7237        880
  12.7834        879
  12.8430        818
  12.9027        783
  12.9623        778
  13.0220        755
  13.0816        673
  13.1413        724
  13.2010        691
  13.2606        710
  13.3203        664
  13.3799        627
  13.4396        657
  13.4992        664
  13.5589        632
  13.6185        608
  13.6782        615
  13.7378        625
  13.7975        611
  13.8572        586
  13.9168        641
  13.9765        649
  14.0361        573
  14.0958        570
  14.1554        639
  14.2151        546
  14.2747        601
  14.3344        617
  14.3940        621
  14.4537        626
  14.5134        580
  14.5730        689
  14.6327        687
  14.6923        654
  14.7520        601
  14.8116        587
  14.8713        565
  14.9309        605
  14.9906        567
  15.0502        568
  15.1099        572
  15.1696        583
  15.2292        571
  15.2889        593
  15.3485        556
  15.4082        542
  15.4678        547
  15.5275        532
  15.5871        499
  15.6468        504
  15.7065        541
  15.7661        542
  15.8258        571
  15.8854        642
  15.9451        740
  16.0047       1187
  16.0644       1497
  16.1240        837
  16.1837        664
  16.2433        564
  16.3030        594
  16.3627        584
  16.4223        536
  16.4820        529
  16.5416        525
  16.6013        534
  16.6609        547
  16.7206        475
  16.7802        547
  16.8399        493
  16.8995        508
  16.9592        471
  17.0189        490
  17.0785        496
  17.1382        505
  17.1978        486
  17.2575        488
  17.3171        519
  17.3768        501
  17.4364        498
  17.4961        471
  17.5557        462
  17.6154        470
  17.6751        488
  17.7347        487
  17.7944        466
  17.8540        464
  17.9137        475
  17.9733        432
  18.0330        478
  18.0926        455
  18.1523        446
  18.2119        471
  18.2716        434
  18.3313        463
  18.3909        454
  18.4506        465
  18.5102        445
  18.5699        457
  18.6295        474
  18.6892        451
  18.7488        448
  18.8085        444
  18.8682        446
  18.9278        448
  18.9875        425
  19.0471        436
  19.1068        425
  19.1664        437
  19.2261        459
  19.2857        468
  19.3454        412
  19.4050        460
  19.4647        480
  19.5244        479
  19.5840        470
  19.6437        407
  19.7033        434
  19.7630        433
  19.8226        436
  19.8823        411
  19.9419        419
  20.0016        458
  20.0612        428
  20.1209        435
  20.1806        426
  20.2402        434
  20.2999        442
  20.3595        455
  20.4192        405
  20.4788        392
  20.5385        384
  20.5981        440
  20.6578        415
  20.7174        396
  20.7771        424
  20.8368        407
  20.8964        448
  20.9561        456
  21.0157        429
  21.0754        423
  21.1350        421
  21.1947        410
  21.2543        435
  21.3140        457
  21.3736        442
  21.4333        636
  21.4930        898
  21.5526        767
  21.6123        586
  21.6719        443
  21.7316        416
  21.7912        414
  21.8509        406
  21.9105        376
  21.9702        392
  22.0298        385
  22.0895        415
  22.1492        392
  22.2088        403
  22.2685        400
  22.3281        413
  22.3878        439
  22.4474        458
  22.5071        401
  22.5667        420
  22.6264        403
  22.6861        405
  22.7457        457
  22.8054        409
  22.8650        472
  22.9247        500
  22.9843        556
  23.0440        643
  23.1036       1189
  23.1633       2049
  23.2229       1420
  23.2826        720
  23.3423        614
  23.4019        595
  23.4616        665
  23.5212        649
  23.5809        815
  23.6405        942
  23.7002       1034
  23.7598       1007
  23.8195        933
  23.8791        771
  23.9388        643
  23.9985        607
  24.0581        566
  24.1178        502
  24.1774        470
  24.2371        481
  24.2967        468
  24.3564        515
  24.4160        602
  24.4757        538
  24.5353        449
  24.5950        453
  24.6547        433
  24.7143        422
  24.7740        443
  24.8336        411
  24.8933        445
  24.9529        451
  25.0126        460
  25.0722        443
  25.1319        445
  25.1915        459
  25.2512        449
  25.3109        454
  25.3705        442
  25.4302        428
  25.4898        488
  25.5495        551
  25.6091        641
  25.6688        529
  25.7284        488
  25.7881        483
  25.8478        525
  25.9074        458
  25.9671        501
  26.0267        504
  26.0864        479
  26.1460        431
  26.2057        448
  26.2653        484
  26.3250        479
  26.3846        468
  26.4443        449
  26.5040        450
  26.5636        476
  26.6233        536
  26.6829        713
  26.7426        980
  26.8022        776
  26.8619        602
  26.9215        576
  26.9812        686
  27.0408        632
  27.1005        682
  27.1602        828
  27.2198       1216
  27.2795       1163
  27.3391        844
  27.3988        720
  27.4584        687
  27.5181        694
  27.5777        737
  27.6374        801
  27.6970       1073
  27.7567       1646
  27.8164       2093
  27.8760       1691
  27.9357       1142
  27.9953        749
  28.0550        648
  28.1146        648
  28.1743        596
  28.2339        590
  28.2936        641
  28.3532        626
  28.4129        647
  28.4726        629
  28.5322        575
  28.5919        576
  28.6515        522
  28.7112        575
  28.7708        561
  28.8305        536
  28.8901        595
  28.9498        578
  29.0094        662
  29.0691        626
  29.1288        650
  29.1884        638
  29.2481        703
  29.3077        754
  29.3674        818
  29.4270        860
  29.4867        925
  29.5463       1053
  29.6060       1118
  29.6657       1537
  29.7253       1824
  29.7850       2339
  29.8446       3979
  29.9043       7040
  29.9639       5394
  30.0236       3428
  30.0832       2270
  30.1429       1805
  30.2025       1523
  30.2622       1320
  30.3219       1138
  30.3815        965
  30.4412        870
  30.5008        729
  30.5605        723
  30.6201        643
  30.6798        592
  30.7394        579
  30.7991        519
  30.8587        509
  30.9184        502
  30.9781        499
  31.0377        427
  31.0974        422
  31.1570        480
  31.2167        464
  31.2763        474
  31.3360        459
  31.3956        457
  31.4553        482
  31.5149        555
  31.5746        615
  31.6343        530
  31.6939        498
  31.7536        461
  31.8132        449
  31.8729        470
  31.9325        487
  31.9922        482
  32.0518        497
  32.1115        560
  32.1711        607
  32.2308        632
  32.2905        720
  32.3501        869
  32.4098       1075
  32.4694       1288
  32.5291       1651
  32.5887       1748
  32.6484       1936
  32.7080       1976
  32.7677       1646
  32.8273       1277
  32.8870       1475
  32.9467       1560
  33.0063       1260
  33.0660        930
  33.1256        642
  33.1853        567
  33.2449        497
  33.3046        428
  33.3642        397
  33.4239        417
  33.4836        357
  33.5432        380
  33.6029        354
  33.6625        392
  33.7222        363
  33.7818        389
  33.8415        371
  33.9011        356
  33.9608        359
  34.0204        345
  34.0801        323
  34.1398        313
  34.1994        385
  34.2591        372
  34.3187        339
  34.3784        325
  34.4380        387
  34.4977        464
  34.5573        375
  34.6170        403
  34.6766        359
  34.7363        375
  34.7960        400
  34.8556        417
  34.9153        432
  34.9749        389
  35.0346        363
  35.0942        377
  35.1539        386
  35.2135        396
  35.2732        364
  35.3328        380
  35.3925        318
  35.4522        324
  35.5118        325
  35.5715        319
  35.6311        287
  35.6908        349
  35.7504        325
  35.8101        311
  35.8697        301
  35.9294        275
  35.9890        315
  36.0487        295
  36.1084        270
  36.1680        291
  36.2277        264
  36.2873        277
  36.3470        300
  36.4066        295
  36.4663        263
  36.5259        312
  36.5856        343
  36.6453        427
  36.7049        412
  36.7646        420
  36.8242        431
  36.8839        472
  36.9435        417
  37.0032        391
  37.0628        293
  37.1225        295
  37.1821        315
  37.2418        327
  37.3015        266
  37.3611        303
  37.4208        359
  37.4804        369
  37.5401        355
  37.5997        296
  37.6594        327
  37.7190        319
  37.7787        369
  37.8383        345
  37.8980        335
  37.9577        361
  38.0173        425
  38.0770        454
  38.1366        573
  38.1963        860
  38.2559        716
  38.3156        566
  38.3752        415
  38.4349        365
  38.4945        318
  38.5542        351
  38.6139        309
  38.6735        320
  38.7332        311
  38.7928        323
  38.8525        306
  38.9121        338
  38.9718        330
  39.0314        336
  39.0911        329
  39.1507        322
  39.2104        365
  39.2701        336
  39.3297        383
  39.3894        403
  39.4490        549
  39.5087        752
  39.5683        651
  39.6280        661
  39.6876        712
  39.7473        707
  39.8069        606
  39.8666        459
  39.9263        359
  39.9859        343
  40.0456        294
  40.1052        294
  40.1649        290
  40.2245        305
  40.2842        286
  40.3438        269
  40.4035        310
  40.4632        260
  40.5228        293
  40.5825        295
  40.6421        263
  40.7018        240
  40.7614        263
  40.8211        281
  40.8807        272
  40.9404        284
  41.0000        274
  41.0597        305
  41.1194        340
  41.1790        287
  41.2387        290
  41.2983        345
  41.3580        293
  41.4176        319
  41.4773        321
  41.5369        337
  41.5966        332
  41.6562        330
  41.7159        367
  41.7756        377
  41.8352        424
  41.8949        423
  41.9545        411
  42.0142        436
  42.0738        446
  42.1335        426
  42.1931        403
  42.2528        392
  42.3124        385
  42.3721        358
  42.4318        325
  42.4914        320
  42.5511        321
  42.6107        381
  42.6704        393
  42.7300        332
  42.7897        353
  42.8493        311
  42.9090        281
  42.9686        289
  43.0283        264
  43.0880        278
  43.1476        278
  43.2073        249
  43.2669        289
  43.3266        256
  43.3862        267
  43.4459        244
  43.5055        255
  43.5652        255
  43.6249        271
  43.6845        247
  43.7442        240
  43.8038        252
  43.8635        270
  43.9231        338
  43.9828        312
  44.0424        342
  44.1021        290
  44.1617        254
  44.2214        273
  44.2811        289
  44.3407        250
  44.4004        270
  44.4600        256
  44.5197        240
  44.5793        233
  44.6390        277
  44.6986        271
  44.7583        266
  44.8179        286
  44.8776        292
  44.9373        290
  44.9969        275
  45.0566        304
  45.1162        263
  45.1759        275
  45.2355        284
  45.2952        299
  45.3548        284
  45.4145        298
  45.4741        280
  45.5338        297
  45.5935        249
  45.6531        277
  45.7128        296
  45.7724        298
  45.8321        348
  45.8917        358
  45.9514        422
  46.0110        525
  46.0707        545
  46.1303        518
  46.1900        483
  46.2497        421
  46.3093        426
  46.3690        384
  46.4286        406
  46.4883        437
  46.5479        470
  46.6076        465
  46.6672        608
  46.7269        666
  46.7865        647
  46.8462        704
  46.9059        663
  46.9655        625
  47.0252        655
  47.0848        783
  47.1445       1096
  47.2041        805
  47.2638        787
  47.3234        540
  47.3831        444
  47.4428        386
  47.5024        417
  47.5621        425
  47.6217        570
  47.6814        468
  47.7410        457
  47.8007        399
  47.8603        347
  47.9200        309
  47.9796        322
  48.0393        305
  48.0990        280
  48.1586        302
  48.2183        334
  48.2779        291
  48.3376        331
  48.3972        418
  48.4569        388
  48.5165        374
  48.5762        318
  48.6358        321
  48.6955        308
  48.7552        314
  48.8148        314
  48.8745        291
  48.9341        321
  48.9938        277
  49.0534        284
  49.1131        267
  49.1727        289
  49.2324        290
  49.2920        313
  49.3517        312
  49.4114        289
  49.4710        272
  49.5307        311
  49.5903        315
  49.6500        350
  49.7096        355
  49.7693        392
  49.8289        356
  49.8886        345
  49.9482        291
  50.0079        320
  50.0676        323
  50.1272        403
  50.1869        359
  50.2465        334
  50.3062        298
  50.3658        326
  50.4255        271
  50.4851        299
  50.5448        282
  50.6045        293
  50.6641        295
  50.7238        305
  50.7834        298
  50.8431        319
  50.9027        324
  50.9624        348
  51.0220        356
  51.0817        381
  51.1413        563
  51.2010        651
  51.2607        641
  51.3203        838
  51.3800        841
  51.4396        614
  51.4993        670
  51.5589        546
  51.6186        498
  51.6782        488
  51.7379        445
  51.7975        492
  51.8572        463
  51.9169        456
  51.9765        421
  52.0362        504
  52.0958        477
  52.1555        458
  52.2151        508
  52.2748        410
  52.3344        465
  52.3941        482
  52.4537        489
  52.5134        428
  52.5731        410
  52.6327        375
  52.6924        365
  52.7520        387
  52.8117        420
  52.8713        398
  52.9310        463
  52.9906        484
  53.0503        542
  53.1099        470
  53.1696        472
  53.2293        460
  53.2889        440
  53.3486        469
  53.4082        387
  53.4679        396
  53.5275        349
  53.5872        349
  53.6468        290
  53.7065        318
  53.7661        315
  53.8258        341
  53.8855        350
  53.9451        418
  54.0048        409
  54.0644        401
  54.1241        414
  54.1837        401
  54.2434        354
  54.3030        335
  54.3627        344
  54.4224        320
  54.4820        308
  54.5417        344
  54.6013        336
  54.6610        355
  54.7206        337
  54.7803        350
  54.8399        333
  54.8996        284
  54.9592        318
  55.0189        325
  55.0786        316
  55.1382        311
  55.1979        354
  55.2575        419
  55.3172        454
  55.3768        447
  55.4365        465
  55.4961        437
  55.5558        404
  55.6154        390
  55.6751        373
  55.7348        357
  55.7944        350
  55.8541        351
  55.9137        370
  55.9734        354
  56.0330        324
  56.0927        312
  56.1523        384
  56.2120        403
  56.2716        363
  56.3313        380
  56.3910        428
  56.4506        520
  56.5103        519
  56.5699        557
  56.6296        594
  56.6892        817
  56.7489        981
  56.8085        735
  56.8682        736
  56.9278        751
  56.9875        761
  57.0472        854
  57.1068        595
  57.1665        594
  57.2261        572
  57.2858        385
  57.3454        334
  57.4051        352
  57.4647        298
  57.5244        335
  57.5841        364
  57.6437        352
  57.7034        310
  57.7630        321
  57.8227        293
  57.8823        313
  57.9420        278
  58.0016        266
  58.0613        306
  58.1209        286
  58.1806        298
  58.2403        293
  58.2999        340
  58.3596        346
  58.4192        304
  58.4789        319
  58.5385        306
  58.5982        281
  58.6578        270
  58.7175        289
  58.7771        285
  58.8368        302
  58.8965        291
  58.9561        308
  59.0158        266
  59.0754        285
  59.1351        284
  59.1947        258
  59.2544        251
  59.3140        236
  59.3737        245
  59.4333        243
  59.4930        220
  59.5527        245
  59.6123        235
  59.6720        243
  59.7316        246
  59.7913        225
  59.8509        244
  59.9106        216
  59.9702        221
  60.0299        242
  60.0895        218
  60.1492        226
  60.2089        240
  60.2685        233
  60.3282        250
  60.3878        218
  60.4475        221
  60.5071        215
  60.5668        246
  60.6264        218
  60.6861        228
  60.7457        239
  60.8054        228
  60.8651        233
  60.9247        246
  60.9844        236
  61.0440        232
  61.1037        272
  61.1633        248
  61.2230        232
  61.2826        253
  61.3423        244
  61.4020        233
  61.4616        225
  61.5213        239
  61.5809        261
  61.6406        263
  61.7002        257
  61.7599        250
  61.8195        300
  61.8792        262
  61.9388        301
  61.9985        351
  62.0582        303
  62.1178        324
  62.1775        392
  62.2371        453
  62.2968        509
  62.3564        418
  62.4161        372
  62.4757        404
  62.5354        340
  62.5950        309
  62.6547        274
  62.7144        275
  62.7740        268
  62.8337        266
  62.8933        265
  62.9530        250
  63.0126        235
  63.0723        209
  63.1319        280
  63.1916        237
  63.2512        228
  63.3109        243
  63.3706        249
  63.4302        260
  63.4899        229
  63.5495        234
  63.6092        244
  63.6688        226
  63.7285        237
  63.7881        247
  63.8478        226
  63.9074        243
  63.9671        264
  64.0268        324
  64.0864        381
  64.1461        328
  64.2057        309
  64.2654        317
  64.3250        286
  64.3847        223
  64.4443        244
  64.5040        210
  64.5637        238
  64.6233        235
  64.6830        202
  64.7426        195
  64.8023        208
  64.8619        228
  64.9216        212
  64.9812        203
  65.0409        219
  65.1005        199
  65.1602        221
  65.2199        202
  65.2795        236
  65.3392        237
  65.3988        217
  65.4585        228
  65.5181        232
  65.5778        217
  65.6374        245
  65.6971        246
  65.7567        248
  65.8164        257
  65.8761        235
  65.9357        234
  65.9954        208
  66.0550        211
  66.1147        211
  66.1743        222
  66.2340        220
  66.2936        215
  66.3533        219
  66.4129        237
  66.4726        230
  66.5323        229
  66.5919        215
  66.6516        231
  66.7112        232
  66.7709        217
  66.8305        183
  66.8902        192
  66.9498        172
  67.0095        188
  67.0691        189
  67.1288        176
  67.1885        184
  67.2481        204
  67.3078        202
  67.3674        200
  67.4271        193
  67.4867        207
  67.5464        206
  67.6060        185
  67.6657        184
  67.7253        194
  67.7850        209
  67.8447        192
  67.9043        202
  67.9640        208
  68.0236        202
  68.0833        229
  68.1429        238
  68.2026        234
  68.2622        253
  68.3219        244
  68.3816        231
  68.4412        251
  68.5009        253
  68.5605        250
  68.6202        235
  68.6798        286
  68.7395        222
  68.7991        262
  68.8588        224
  68.9184        200
  68.9781        224
  69.0378        224
  69.0974        221
  69.1571        261
  69.2167        305
  69.2764        264
  69.3360        225
  69.3957        280
  69.4553        286
  69.5150        248
  69.5746        262
  69.6343        221
  69.6940        225
  69.7536        224
  69.8133        210
  69.8729        199
  69.9326        250
  69.9922        206
  70.0519        174
  70.1115        180
  70.1712        209
  70.2308        178
  70.2905        191
  70.3502        211
  70.4098        172
  70.4695        163
  70.5291        153
  70.5888        172
  70.6484        191
  70.7081        169
  70.7677        185
  70.8274        170
  70.8870        188
  70.9467        176
  71.0064        204
  71.0660        217
  71.1257        200
  71.1853        220
  71.2450        205
  71.3046        204
  71.3643        205
  71.4239        169
  71.4836        191
  71.5433        184
  71.6029        204
  71.6626        180
  71.7222        214
  71.7819        208
  71.8415        217
  71.9012        222
  71.9608        238
  72.0205        256
  72.0801        209
  72.1398        243
  72.1995        251
  72.2591        208
  72.3188        170
  72.3784        184
  72.4381        203
  72.4977        174
  72.5574        184
  72.6170        216
  72.6767        203
  72.7363        227
  72.7960        205
  72.8557        211
  72.9153        263
  72.9750        188
  73.0346        200
  73.0943        221
  73.1539        222
  73.2136        212
  73.2732        182
  73.3329        194
  73.3925        216
  73.4522        205
  73.5119        204
  73.5715        192
  73.6312        196
  73.6908        218
  73.7505        221
  73.8101        244
  73.8698        249
  73.9294        234
  73.9891        227
  74.0487        231
  74.1084        231
  74.1681        234
  74.2277        212
  74.2874        218
  74.3470        228
  74.4067        196
  74.4663        200
  74.5260        185
  74.5856        196
  74.6453        211
  74.7049        191
  74.7646        203
  74.8243        179
  74.8839        192
  74.9436        199
  75.0032        198
  75.0629        173
  75.1225        193
  75.1822        185
  75.2418        177
  75.3015        175
  75.3612        187
  75.4208        204
  75.4805        212
  75.5401        195
  75.5998        205
  75.6594        183
  75.7191        207
  75.7787        208
  75.8384        201
  75.8980        198
  75.9577        201
  76.0174        198
  76.0770        217
  76.1367        189
  76.1963        184
  76.2560        203
  76.3156        234
  76.3753        197
  76.4349        246
  76.4946        218
  76.5542        198
  76.6139        231
  76.6736        260
  76.7332        226
  76.7929        207
  76.8525        251
  76.9122        235
  76.9718        293
  77.0315        273
  77.0911        249
  77.1508        275
  77.2104        263
  77.2701        245
  77.3298        241
  77.3894        220
  77.4491        229
  77.5087        216
  77.5684        243
  77.6280        234
  77.6877        224
  77.7473        246
  77.8070        238
  77.8666        217
  77.9263        242
  77.9860        215
  78.0456        221
  78.1053        233
  78.1649        250
  78.2246        243
  78.2842        225
  78.3439        288
  78.4035        253
  78.4632        241
  78.5229        257
  78.5825        249
  78.6422        218
  78.7018        250
  78.7615        195
  78.8211        207
  78.8808        203
  78.9404        186
  79.0001        213
  79.0597        232
  79.1194        191
  79.1791        196
  79.2387        172
  79.2984        181
  79.3580        214
  79.4177        171
  79.4773        173
  79.5370        191
  79.5966        172
  79.6563        211
  79.7159        183
  79.7756        169
  79.8353        186
  79.8949        167
  79.9546        194
  79.9943        162